index,trial_index,id,price_displayed,key pressed,environment,order,round_instance,task,function_id,quality_check,builtin_rt,end_time,start_time,Participant Public ID,key_pressed,trial_label,latency
167,3.0,773858.0,1.0,39.0,high,high-low,11.0,rod_fixing,rod_fixing,1.0,116.91499990411104,1562773257205.0,1562773257085.0,BLIND,39.0,3.0 11.0,126.0
168,3.0,773858.0,1.0,39.0,high,high-low,11.0,rod_fixing,rod_fixing,1.0,134.6850001718849,1562773257346.0,1562773257211.0,BLIND,39.0,3.0 11.0,141.0
169,3.0,773858.0,1.0,39.0,high,high-low,11.0,rod_fixing,rod_fixing,1.0,149.48000013828278,1562773257502.0,1562773257352.0,BLIND,39.0,3.0 11.0,159.0
170,3.0,773858.0,1.0,39.0,high,high-low,11.0,rod_fixing,rod_fixing,1.0,148.7249999772757,1562773257661.0,1562773257511.0,BLIND,39.0,3.0 11.0,156.0
171,3.0,773858.0,1.0,39.0,high,high-low,11.0,rod_fixing,rod_fixing,1.0,151.33000002242625,1562773257820.0,1562773257667.0,BLIND,39.0,3.0 11.0,159.0
172,3.0,773858.0,1.0,39.0,high,high-low,11.0,rod_fixing,rod_fixing,1.0,153.33999996073544,1562773257981.0,1562773257826.0,BLIND,39.0,3.0 11.0,160.0
173,3.0,773858.0,1.0,39.0,high,high-low,11.0,rod_fixing,rod_fixing,1.0,152.23500016145408,1562773258140.0,1562773257986.0,BLIND,39.0,3.0 11.0,175.0
491,7.0,773858.0,6.0,39.0,high,high-low,11.0,rod_fixing,rod_fixing,1.0,128.65500012412667,1562773309563.0,1562773309433.0,BLIND,39.0,7.0 11.0,139.0
492,7.0,773858.0,6.0,39.0,high,high-low,11.0,rod_fixing,rod_fixing,1.0,133.60000005923212,1562773309707.0,1562773309572.0,BLIND,39.0,7.0 11.0,138.0
493,7.0,773858.0,6.0,39.0,high,high-low,11.0,rod_fixing,rod_fixing,1.0,156.70499997213483,1562773309869.0,1562773309710.0,BLIND,39.0,7.0 11.0,166.0
494,7.0,773858.0,6.0,39.0,high,high-low,11.0,rod_fixing,rod_fixing,1.0,149.500000057742,1562773310029.0,1562773309876.0,BLIND,39.0,7.0 11.0,159.0
495,7.0,773858.0,6.0,39.0,high,high-low,11.0,rod_fixing,rod_fixing,1.0,143.47500004805627,1562773310180.0,1562773310035.0,BLIND,39.0,7.0 11.0,152.0
496,7.0,773858.0,6.0,39.0,high,high-low,11.0,rod_fixing,rod_fixing,1.0,153.5350000485778,1562773310342.0,1562773310187.0,BLIND,39.0,7.0 11.0,162.0
497,7.0,773858.0,6.0,39.0,high,high-low,11.0,rod_fixing,rod_fixing,1.0,141.65999996475875,1562773310491.0,1562773310349.0,BLIND,39.0,7.0 11.0,165.0
812,11.0,773858.0,1.0,39.0,high,high-low,11.0,rod_fixing,rod_fixing,1.0,145.08499996736646,1562773361782.0,1562773361636.0,BLIND,39.0,11.0 11.0,153.0
813,11.0,773858.0,1.0,39.0,high,high-low,11.0,rod_fixing,rod_fixing,1.0,137.05000001937148,1562773361927.0,1562773361789.0,BLIND,39.0,11.0 11.0,145.0
814,11.0,773858.0,1.0,39.0,high,high-low,11.0,rod_fixing,rod_fixing,1.0,160.5449998751283,1562773362096.0,1562773361934.0,BLIND,39.0,11.0 11.0,169.0
815,11.0,773858.0,1.0,39.0,high,high-low,11.0,rod_fixing,rod_fixing,1.0,137.14000000618398,1562773362242.0,1562773362103.0,BLIND,39.0,11.0 11.0,149.0
816,11.0,773858.0,1.0,39.0,high,high-low,11.0,rod_fixing,rod_fixing,1.0,147.31999998912215,1562773362400.0,1562773362252.0,BLIND,39.0,11.0 11.0,156.0
817,11.0,773858.0,1.0,39.0,high,high-low,11.0,rod_fixing,rod_fixing,1.0,141.33000001311302,1562773362552.0,1562773362408.0,BLIND,39.0,11.0 11.0,151.0
818,11.0,773858.0,1.0,39.0,high,high-low,11.0,rod_fixing,rod_fixing,1.0,170.85000011138618,1562773362732.0,1562773362559.0,BLIND,39.0,11.0 11.0,196.0
1231,4.0,773858.0,0.4,39.0,high,high-low,21.0,rod_fixing,rod_fixing,1.0,309.015000006184,1562773478190.0,1562773477880.0,BLIND,39.0,4.0 21.0,318.0
1232,4.0,773858.0,0.4,39.0,high,high-low,21.0,rod_fixing,rod_fixing,1.0,142.9099999368191,1562773478342.0,1562773478198.0,BLIND,39.0,4.0 21.0,152.0
1233,4.0,773858.0,0.4,39.0,high,high-low,21.0,rod_fixing,rod_fixing,1.0,141.9999999925494,1562773478493.0,1562773478350.0,BLIND,39.0,4.0 21.0,150.0
1234,4.0,773858.0,0.4,39.0,high,high-low,21.0,rod_fixing,rod_fixing,1.0,152.11000014096496,1562773478653.0,1562773478500.0,BLIND,39.0,4.0 21.0,161.0
1235,4.0,773858.0,0.4,39.0,high,high-low,21.0,rod_fixing,rod_fixing,1.0,150.05999989807606,1562773478812.0,1562773478661.0,BLIND,39.0,4.0 21.0,160.0
1236,4.0,773858.0,0.4,39.0,high,high-low,21.0,rod_fixing,rod_fixing,1.0,144.594999961555,1562773478967.0,1562773478821.0,BLIND,39.0,4.0 21.0,154.0
1237,4.0,773858.0,0.4,39.0,high,high-low,21.0,rod_fixing,rod_fixing,1.0,148.0499999597669,1562773479124.0,1562773478975.0,BLIND,39.0,4.0 21.0,177.0
1525,8.0,773858.0,1.0,39.0,high,high-low,21.0,rod_fixing,rod_fixing,1.0,144.3150001578033,1562773530201.0,1562773530055.0,BLIND,39.0,8.0 21.0,157.0
1526,8.0,773858.0,1.0,39.0,high,high-low,21.0,rod_fixing,rod_fixing,1.0,172.95000003650784,1562773530387.0,1562773530212.0,BLIND,39.0,8.0 21.0,184.0
1527,8.0,773858.0,1.0,39.0,high,high-low,21.0,rod_fixing,rod_fixing,1.0,168.33999985828996,1562773530566.0,1562773530396.0,BLIND,39.0,8.0 21.0,177.0
1528,8.0,773858.0,1.0,39.0,high,high-low,21.0,rod_fixing,rod_fixing,1.0,153.80000020377338,1562773530730.0,1562773530573.0,BLIND,39.0,8.0 21.0,166.0
1529,8.0,773858.0,1.0,39.0,high,high-low,21.0,rod_fixing,rod_fixing,1.0,158.93499995581806,1562773530899.0,1562773530739.0,BLIND,39.0,8.0 21.0,172.0
1530,8.0,773858.0,1.0,39.0,high,high-low,21.0,rod_fixing,rod_fixing,1.0,159.22000003047287,1562773531071.0,1562773530911.0,BLIND,39.0,8.0 21.0,171.0
1531,8.0,773858.0,1.0,39.0,high,high-low,21.0,rod_fixing,rod_fixing,1.0,167.11999988183382,1562773531250.0,1562773531082.0,BLIND,39.0,8.0 21.0,200.0
1766,11.0,773858.0,0.1,39.0,high,high-low,21.0,rod_fixing,rod_fixing,1.0,160.03999998793006,1562773569594.0,1562773569433.0,BLIND,39.0,11.0 21.0,170.0
1767,11.0,773858.0,0.1,39.0,high,high-low,21.0,rod_fixing,rod_fixing,1.0,159.86500005237758,1562773569764.0,1562773569603.0,BLIND,39.0,11.0 21.0,170.0
1768,11.0,773858.0,0.1,39.0,high,high-low,21.0,rod_fixing,rod_fixing,1.0,155.61499982140958,1562773569931.0,1562773569773.0,BLIND,39.0,11.0 21.0,167.0
1769,11.0,773858.0,0.1,39.0,high,high-low,21.0,rod_fixing,rod_fixing,1.0,150.14500007964668,1562773570091.0,1562773569940.0,BLIND,39.0,11.0 21.0,161.0
1770,11.0,773858.0,0.1,39.0,high,high-low,21.0,rod_fixing,rod_fixing,1.0,148.48500001244247,1562773570251.0,1562773570101.0,BLIND,39.0,11.0 21.0,159.0
1771,11.0,773858.0,0.1,39.0,high,high-low,21.0,rod_fixing,rod_fixing,1.0,164.19999999925494,1562773570426.0,1562773570260.0,BLIND,39.0,11.0 21.0,174.0
1772,11.0,773858.0,0.1,39.0,high,high-low,21.0,rod_fixing,rod_fixing,1.0,185.70500006899243,1562773570621.0,1562773570434.0,BLIND,39.0,11.0 21.0,218.0
2087,3.0,773858.0,1.0,39.0,low,high-low,12.0,rod_fixing,rod_fixing,1.0,119.30000013671815,1562773686992.0,1562773686871.0,BLIND,39.0,3.0 12.0,131.0
2088,3.0,773858.0,1.0,39.0,low,high-low,12.0,rod_fixing,rod_fixing,1.0,175.56000011973083,1562773687179.0,1562773687002.0,BLIND,39.0,3.0 12.0,185.0
2089,3.0,773858.0,1.0,39.0,low,high-low,12.0,rod_fixing,rod_fixing,1.0,153.2600000500679,1562773687343.0,1562773687187.0,BLIND,39.0,3.0 12.0,165.0
2090,3.0,773858.0,1.0,39.0,low,high-low,12.0,rod_fixing,rod_fixing,1.0,151.63499978370962,1562773687504.0,1562773687352.0,BLIND,39.0,3.0 12.0,163.0
2091,3.0,773858.0,1.0,39.0,low,high-low,12.0,rod_fixing,rod_fixing,1.0,145.22500010207295,1562773687662.0,1562773687515.0,BLIND,39.0,3.0 12.0,157.0
2092,3.0,773858.0,1.0,39.0,low,high-low,12.0,rod_fixing,rod_fixing,1.0,155.3749998565763,1562773687829.0,1562773687672.0,BLIND,39.0,3.0 12.0,165.0
2093,3.0,773858.0,1.0,39.0,low,high-low,12.0,rod_fixing,rod_fixing,1.0,422.73500002920633,1562773688262.0,1562773687837.0,BLIND,39.0,3.0 12.0,462.0
2404,7.0,773858.0,6.0,39.0,low,high-low,12.0,rod_fixing,rod_fixing,1.0,146.35500009171662,1562773739702.0,1562773739554.0,BLIND,39.0,7.0 12.0,165.0
2405,7.0,773858.0,6.0,39.0,low,high-low,12.0,rod_fixing,rod_fixing,1.0,146.1899999994785,1562773739867.0,1562773739719.0,BLIND,39.0,7.0 12.0,158.0
2406,7.0,773858.0,6.0,39.0,low,high-low,12.0,rod_fixing,rod_fixing,1.0,174.5249999221414,1562773740053.0,1562773739877.0,BLIND,39.0,7.0 12.0,185.0
2407,7.0,773858.0,6.0,39.0,low,high-low,12.0,rod_fixing,rod_fixing,1.0,169.56999991089106,1562773740233.0,1562773740062.0,BLIND,39.0,7.0 12.0,182.0
2408,7.0,773858.0,6.0,39.0,low,high-low,12.0,rod_fixing,rod_fixing,1.0,145.69000015035272,1562773740391.0,1562773740244.0,BLIND,39.0,7.0 12.0,157.0
2409,7.0,773858.0,6.0,39.0,low,high-low,12.0,rod_fixing,rod_fixing,1.0,162.29499992914498,1562773740565.0,1562773740401.0,BLIND,39.0,7.0 12.0,173.0
2410,7.0,773858.0,6.0,39.0,low,high-low,12.0,rod_fixing,rod_fixing,1.0,164.38500001095238,1562773740741.0,1562773740574.0,BLIND,39.0,7.0 12.0,208.0
2691,11.0,773858.0,1.0,39.0,low,high-low,12.0,rod_fixing,rod_fixing,1.0,157.32500003650784,1562773802653.0,1562773802494.0,BLIND,39.0,11.0 12.0,174.0
2692,11.0,773858.0,1.0,39.0,low,high-low,12.0,rod_fixing,rod_fixing,1.0,156.4150000922382,1562773802827.0,1562773802668.0,BLIND,39.0,11.0 12.0,172.0
2693,11.0,773858.0,1.0,39.0,low,high-low,12.0,rod_fixing,rod_fixing,1.0,161.8500000331551,1562773803003.0,1562773802840.0,BLIND,39.0,11.0 12.0,174.0
2694,11.0,773858.0,1.0,39.0,low,high-low,12.0,rod_fixing,rod_fixing,1.0,154.75999983027575,1562773803171.0,1562773803014.0,BLIND,39.0,11.0 12.0,167.0
2695,11.0,773858.0,1.0,39.0,low,high-low,12.0,rod_fixing,rod_fixing,1.0,176.61500000394884,1562773803359.0,1562773803181.0,BLIND,39.0,11.0 12.0,189.0
2696,11.0,773858.0,1.0,39.0,low,high-low,12.0,rod_fixing,rod_fixing,1.0,147.76000007987022,1562773803519.0,1562773803370.0,BLIND,39.0,11.0 12.0,160.0
2697,11.0,773858.0,1.0,39.0,low,high-low,12.0,rod_fixing,rod_fixing,1.0,158.22000009939075,1562773803689.0,1562773803530.0,BLIND,39.0,11.0 12.0,199.0
3020,4.0,773858.0,0.4,39.0,low,high-low,22.0,rod_fixing,rod_fixing,1.0,152.04500011168417,1562773860851.0,1562773860697.0,BLIND,39.0,4.0 22.0,164.0
3021,4.0,773858.0,0.4,39.0,low,high-low,22.0,rod_fixing,rod_fixing,1.0,143.51999992504716,1562773861005.0,1562773860861.0,BLIND,39.0,4.0 22.0,155.0
3022,4.0,773858.0,0.4,39.0,low,high-low,22.0,rod_fixing,rod_fixing,1.0,165.01999995671213,1562773861183.0,1562773861016.0,BLIND,39.0,4.0 22.0,178.0
3023,4.0,773858.0,0.4,39.0,low,high-low,22.0,rod_fixing,rod_fixing,1.0,162.81999996863306,1562773861358.0,1562773861194.0,BLIND,39.0,4.0 22.0,176.0
3024,4.0,773858.0,0.4,39.0,low,high-low,22.0,rod_fixing,rod_fixing,1.0,156.63499990478158,1562773861528.0,1562773861370.0,BLIND,39.0,4.0 22.0,171.0
3025,4.0,773858.0,0.4,39.0,low,high-low,22.0,rod_fixing,rod_fixing,1.0,164.1450000461191,1562773861706.0,1562773861541.0,BLIND,39.0,4.0 22.0,176.0
3026,4.0,773858.0,0.4,39.0,low,high-low,22.0,rod_fixing,rod_fixing,1.0,178.20999980904165,1562773861897.0,1562773861717.0,BLIND,39.0,4.0 22.0,226.0
3321,8.0,773858.0,1.0,39.0,low,high-low,22.0,rod_fixing,rod_fixing,1.0,141.2150000687689,1562773913344.0,1562773913202.0,BLIND,39.0,8.0 22.0,154.0
3322,8.0,773858.0,1.0,39.0,low,high-low,22.0,rod_fixing,rod_fixing,1.0,136.50999986566606,1562773913495.0,1562773913356.0,BLIND,39.0,8.0 22.0,150.0
3323,8.0,773858.0,1.0,39.0,low,high-low,22.0,rod_fixing,rod_fixing,1.0,133.44000000506642,1562773913641.0,1562773913506.0,BLIND,39.0,8.0 22.0,147.0
3324,8.0,773858.0,1.0,39.0,low,high-low,22.0,rod_fixing,rod_fixing,1.0,138.05500022135678,1562773913793.0,1562773913653.0,BLIND,39.0,8.0 22.0,151.0
3325,8.0,773858.0,1.0,39.0,low,high-low,22.0,rod_fixing,rod_fixing,1.0,153.27500016428533,1562773913959.0,1562773913804.0,BLIND,39.0,8.0 22.0,171.0
3326,8.0,773858.0,1.0,39.0,low,high-low,22.0,rod_fixing,rod_fixing,1.0,121.07000011019407,1562773914097.0,1562773913975.0,BLIND,39.0,8.0 22.0,316.0
3550,11.0,773858.0,0.1,39.0,low,high-low,22.0,rod_fixing,rod_fixing,1.0,141.6600001975894,1562773952946.0,1562773952803.0,BLIND,39.0,11.0 22.0,155.0
3551,11.0,773858.0,0.1,39.0,low,high-low,22.0,rod_fixing,rod_fixing,1.0,159.60499993525443,1562773953119.0,1562773952958.0,BLIND,39.0,11.0 22.0,172.0
3552,11.0,773858.0,0.1,39.0,low,high-low,22.0,rod_fixing,rod_fixing,1.0,168.71500015258792,1562773953301.0,1562773953130.0,BLIND,39.0,11.0 22.0,183.0
3553,11.0,773858.0,0.1,39.0,low,high-low,22.0,rod_fixing,rod_fixing,1.0,171.05500004254282,1562773953485.0,1562773953313.0,BLIND,39.0,11.0 22.0,183.0
3554,11.0,773858.0,0.1,39.0,low,high-low,22.0,rod_fixing,rod_fixing,1.0,155.96499992534518,1562773953654.0,1562773953496.0,BLIND,39.0,11.0 22.0,170.0
3555,11.0,773858.0,0.1,39.0,low,high-low,22.0,rod_fixing,rod_fixing,1.0,156.25500003807247,1562773953824.0,1562773953666.0,BLIND,39.0,11.0 22.0,170.0
3556,11.0,773858.0,0.1,39.0,low,high-low,22.0,rod_fixing,rod_fixing,1.0,163.76499994657934,1562773954001.0,1562773953836.0,BLIND,39.0,11.0 22.0,211.0
3770,3.0,773951.0,6.0,39.0,high,high-low,11.0,rod_fixing,rod_fixing,1.0,142.41499998024662,1562775124163.0,1562775124019.0,BLIND,39.0,3.0 11.0,154.0
3771,3.0,773951.0,6.0,39.0,high,high-low,11.0,rod_fixing,rod_fixing,1.0,114.40500000026077,1562775124290.0,1562775124173.0,BLIND,39.0,3.0 11.0,123.0
3772,3.0,773951.0,6.0,39.0,high,high-low,11.0,rod_fixing,rod_fixing,1.0,132.32000000425614,1562775124430.0,1562775124296.0,BLIND,39.0,3.0 11.0,138.0
3773,3.0,773951.0,6.0,39.0,high,high-low,11.0,rod_fixing,rod_fixing,1.0,119.88000001292677,1562775124555.0,1562775124434.0,BLIND,39.0,3.0 11.0,124.0
3774,3.0,773951.0,6.0,39.0,high,high-low,11.0,rod_fixing,rod_fixing,1.0,134.72500001080334,1562775124694.0,1562775124558.0,BLIND,39.0,3.0 11.0,139.0
3775,3.0,773951.0,6.0,39.0,high,high-low,11.0,rod_fixing,rod_fixing,1.0,117.54999999538995,1562775124815.0,1562775124697.0,BLIND,39.0,3.0 11.0,269.0
4106,7.0,773951.0,0.1,39.0,high,high-low,11.0,rod_fixing,rod_fixing,1.0,154.12500000093132,1562775175828.0,1562775175672.0,BLIND,39.0,7.0 11.0,162.0
4107,7.0,773951.0,0.1,39.0,high,high-low,11.0,rod_fixing,rod_fixing,1.0,327.8949999948964,1562775176162.0,1562775175834.0,BLIND,39.0,7.0 11.0,336.0
4108,7.0,773951.0,0.1,39.0,high,high-low,11.0,rod_fixing,rod_fixing,1.0,313.51499998709187,1562775176484.0,1562775176170.0,BLIND,39.0,7.0 11.0,318.0
4109,7.0,773951.0,0.1,39.0,high,high-low,11.0,rod_fixing,rod_fixing,1.0,130.669999984093,1562775176620.0,1562775176488.0,BLIND,39.0,7.0 11.0,139.0
4110,7.0,773951.0,0.1,39.0,high,high-low,11.0,rod_fixing,rod_fixing,1.0,148.11499998904762,1562775176776.0,1562775176627.0,BLIND,39.0,7.0 11.0,152.0
4111,7.0,773951.0,0.1,39.0,high,high-low,11.0,rod_fixing,rod_fixing,1.0,123.00999998115006,1562775176903.0,1562775176779.0,BLIND,39.0,7.0 11.0,129.0
4112,7.0,773951.0,0.1,39.0,high,high-low,11.0,rod_fixing,rod_fixing,1.0,152.959999977611,1562775177062.0,1562775176908.0,BLIND,39.0,7.0 11.0,171.0
4394,11.0,773951.0,2.5,39.0,high,high-low,11.0,rod_fixing,rod_fixing,1.0,158.9099999982864,1562775228260.0,1562775228101.0,BLIND,39.0,11.0 11.0,162.0
4395,11.0,773951.0,2.5,39.0,high,high-low,11.0,rod_fixing,rod_fixing,1.0,163.6199999775272,1562775228428.0,1562775228263.0,BLIND,39.0,11.0 11.0,168.0
4396,11.0,773951.0,2.5,39.0,high,high-low,11.0,rod_fixing,rod_fixing,1.0,186.9700000097509,1562775228618.0,1562775228431.0,BLIND,39.0,11.0 11.0,193.0
4397,11.0,773951.0,2.5,39.0,high,high-low,11.0,rod_fixing,rod_fixing,1.0,134.54500000807457,1562775228760.0,1562775228624.0,BLIND,39.0,11.0 11.0,142.0
4398,11.0,773951.0,2.5,39.0,high,high-low,11.0,rod_fixing,rod_fixing,1.0,196.2099999946076,1562775228963.0,1562775228766.0,BLIND,39.0,11.0 11.0,202.0
4399,11.0,773951.0,2.5,39.0,high,high-low,11.0,rod_fixing,rod_fixing,1.0,150.4200000199489,1562775229119.0,1562775228968.0,BLIND,39.0,11.0 11.0,160.0
4736,4.0,773951.0,6.0,39.0,high,high-low,21.0,rod_fixing,rod_fixing,1.0,374.87999998847954,1562775315047.0,1562775314671.0,BLIND,39.0,4.0 21.0,380.0
4737,4.0,773951.0,6.0,39.0,high,high-low,21.0,rod_fixing,rod_fixing,1.0,181.55500001739708,1562775315233.0,1562775315051.0,BLIND,39.0,4.0 21.0,189.0
4738,4.0,773951.0,6.0,39.0,high,high-low,21.0,rod_fixing,rod_fixing,1.0,156.71000001020732,1562775315398.0,1562775315240.0,BLIND,39.0,4.0 21.0,166.0
4739,4.0,773951.0,6.0,39.0,high,high-low,21.0,rod_fixing,rod_fixing,1.0,130.68999999086373,1562775315538.0,1562775315406.0,BLIND,39.0,4.0 21.0,135.0
4740,4.0,773951.0,6.0,39.0,high,high-low,21.0,rod_fixing,rod_fixing,1.0,144.9399999983143,1562775315687.0,1562775315541.0,BLIND,39.0,4.0 21.0,149.0
4741,4.0,773951.0,6.0,39.0,high,high-low,21.0,rod_fixing,rod_fixing,1.0,149.49499999056567,1562775315840.0,1562775315690.0,BLIND,39.0,4.0 21.0,323.0
5051,8.0,773951.0,1.0,39.0,high,high-low,21.0,rod_fixing,rod_fixing,1.0,139.2399999895133,1562775367278.0,1562775367138.0,BLIND,39.0,8.0 21.0,143.0
5052,8.0,773951.0,1.0,39.0,high,high-low,21.0,rod_fixing,rod_fixing,1.0,134.56999999471012,1562775367417.0,1562775367281.0,BLIND,39.0,8.0 21.0,138.0
5053,8.0,773951.0,1.0,39.0,high,high-low,21.0,rod_fixing,rod_fixing,1.0,162.77500000433062,1562775367582.0,1562775367419.0,BLIND,39.0,8.0 21.0,168.0
5054,8.0,773951.0,1.0,39.0,high,high-low,21.0,rod_fixing,rod_fixing,1.0,162.4850000080187,1562775367750.0,1562775367587.0,BLIND,39.0,8.0 21.0,168.0
5055,8.0,773951.0,1.0,39.0,high,high-low,21.0,rod_fixing,rod_fixing,1.0,188.32500002463348,1562775367943.0,1562775367755.0,BLIND,39.0,8.0 21.0,196.0
5056,8.0,773951.0,1.0,39.0,high,high-low,21.0,rod_fixing,rod_fixing,1.0,174.36000000452626,1562775368128.0,1562775367951.0,BLIND,39.0,8.0 21.0,188.0
5057,8.0,773951.0,1.0,39.0,high,high-low,21.0,rod_fixing,rod_fixing,1.0,151.03999999701045,1562775368291.0,1562775368139.0,BLIND,39.0,8.0 21.0,172.0
5232,11.0,773951.0,2.5,39.0,high,high-low,21.0,rod_fixing,rod_fixing,1.0,147.64999999897557,1562775406794.0,1562775406646.0,BLIND,39.0,11.0 21.0,152.0
5233,11.0,773951.0,2.5,39.0,high,high-low,21.0,rod_fixing,rod_fixing,1.0,149.7450000024401,1562775406948.0,1562775406798.0,BLIND,39.0,11.0 21.0,154.0
5234,11.0,773951.0,2.5,39.0,high,high-low,21.0,rod_fixing,rod_fixing,1.0,152.39000000292435,1562775407105.0,1562775406952.0,BLIND,39.0,11.0 21.0,158.0
5235,11.0,773951.0,2.5,39.0,high,high-low,21.0,rod_fixing,rod_fixing,1.0,149.47999999276362,1562775407260.0,1562775407110.0,BLIND,39.0,11.0 21.0,156.0
5236,11.0,773951.0,2.5,39.0,high,high-low,21.0,rod_fixing,rod_fixing,1.0,140.8650000230409,1562775407408.0,1562775407266.0,BLIND,39.0,11.0 21.0,149.0
5237,11.0,773951.0,2.5,39.0,high,high-low,21.0,rod_fixing,rod_fixing,1.0,151.6299999784678,1562775407567.0,1562775407415.0,BLIND,39.0,11.0 21.0,161.0
5238,11.0,773951.0,2.5,39.0,high,high-low,21.0,rod_fixing,rod_fixing,1.0,131.19499999447729,1562775407708.0,1562775407576.0,BLIND,39.0,11.0 21.0,150.0
5476,3.0,773951.0,6.0,39.0,low,high-low,12.0,rod_fixing,rod_fixing,1.0,197.66000000527126,1562775519186.0,1562775518988.0,BLIND,39.0,3.0 12.0,202.0
5477,3.0,773951.0,6.0,39.0,low,high-low,12.0,rod_fixing,rod_fixing,1.0,163.64499999326654,1562775519354.0,1562775519190.0,BLIND,39.0,3.0 12.0,168.0
5478,3.0,773951.0,6.0,39.0,low,high-low,12.0,rod_fixing,rod_fixing,1.0,164.0350000234321,1562775519522.0,1562775519358.0,BLIND,39.0,3.0 12.0,170.0
5479,3.0,773951.0,6.0,39.0,low,high-low,12.0,rod_fixing,rod_fixing,1.0,140.68500002031215,1562775519669.0,1562775519528.0,BLIND,39.0,3.0 12.0,146.0
5480,3.0,773951.0,6.0,39.0,low,high-low,12.0,rod_fixing,rod_fixing,1.0,150.2500000060536,1562775519825.0,1562775519674.0,BLIND,39.0,3.0 12.0,156.0
5481,3.0,773951.0,6.0,39.0,low,high-low,12.0,rod_fixing,rod_fixing,1.0,152.8700000199024,1562775519984.0,1562775519830.0,BLIND,39.0,3.0 12.0,321.0
5793,7.0,773951.0,0.1,39.0,low,high-low,12.0,rod_fixing,rod_fixing,1.0,170.95999998855405,1562775571407.0,1562775571236.0,BLIND,39.0,7.0 12.0,177.0
5794,7.0,773951.0,0.1,39.0,low,high-low,12.0,rod_fixing,rod_fixing,1.0,161.77000000607222,1562775571575.0,1562775571413.0,BLIND,39.0,7.0 12.0,167.0
5795,7.0,773951.0,0.1,39.0,low,high-low,12.0,rod_fixing,rod_fixing,1.0,179.96499998844232,1562775571760.0,1562775571580.0,BLIND,39.0,7.0 12.0,185.0
5796,7.0,773951.0,0.1,39.0,low,high-low,12.0,rod_fixing,rod_fixing,1.0,173.07499999878928,1562775571939.0,1562775571765.0,BLIND,39.0,7.0 12.0,179.0
5797,7.0,773951.0,0.1,39.0,low,high-low,12.0,rod_fixing,rod_fixing,1.0,154.03999999398366,1562775572099.0,1562775571944.0,BLIND,39.0,7.0 12.0,161.0
5798,7.0,773951.0,0.1,39.0,low,high-low,12.0,rod_fixing,rod_fixing,1.0,179.63500000769272,1562775572285.0,1562775572105.0,BLIND,39.0,7.0 12.0,191.0
5799,7.0,773951.0,0.1,39.0,low,high-low,12.0,rod_fixing,rod_fixing,1.0,311.8949999916367,1562775572608.0,1562775572296.0,BLIND,39.0,7.0 12.0,332.0
6052,11.0,773951.0,2.5,39.0,low,high-low,12.0,rod_fixing,rod_fixing,1.0,200.6800000090152,1562775623660.0,1562775623458.0,BLIND,39.0,11.0 12.0,218.0
6053,11.0,773951.0,2.5,39.0,low,high-low,12.0,rod_fixing,rod_fixing,1.0,123.9599999971688,1562775623801.0,1562775623676.0,BLIND,39.0,11.0 12.0,132.0
6054,11.0,773951.0,2.5,39.0,low,high-low,12.0,rod_fixing,rod_fixing,1.0,164.08499999670312,1562775623973.0,1562775623808.0,BLIND,39.0,11.0 12.0,176.0
6055,11.0,773951.0,2.5,39.0,low,high-low,12.0,rod_fixing,rod_fixing,1.0,168.839999998454,1562775624153.0,1562775623984.0,BLIND,39.0,11.0 12.0,176.0
6056,11.0,773951.0,2.5,39.0,low,high-low,12.0,rod_fixing,rod_fixing,1.0,149.93499999400228,1562775624311.0,1562775624160.0,BLIND,39.0,11.0 12.0,157.0
6057,11.0,773951.0,2.5,39.0,low,high-low,12.0,rod_fixing,rod_fixing,1.0,185.72999999742024,1562775624504.0,1562775624317.0,BLIND,39.0,11.0 12.0,199.0
6058,11.0,773951.0,2.5,39.0,low,high-low,12.0,rod_fixing,rod_fixing,1.0,156.23999998206273,1562775624673.0,1562775624516.0,BLIND,39.0,11.0 12.0,188.0
6377,4.0,773951.0,6.0,39.0,low,high-low,22.0,rod_fixing,rod_fixing,1.0,178.99000001489185,1562775692035.0,1562775691855.0,BLIND,39.0,4.0 22.0,184.0
6378,4.0,773951.0,6.0,39.0,low,high-low,22.0,rod_fixing,rod_fixing,1.0,175.6149999855552,1562775692215.0,1562775692039.0,BLIND,39.0,4.0 22.0,181.0
6379,4.0,773951.0,6.0,39.0,low,high-low,22.0,rod_fixing,rod_fixing,1.0,190.83999999566,1562775692412.0,1562775692220.0,BLIND,39.0,4.0 22.0,196.0
6380,4.0,773951.0,6.0,39.0,low,high-low,22.0,rod_fixing,rod_fixing,1.0,157.49499999219552,1562775692574.0,1562775692416.0,BLIND,39.0,4.0 22.0,163.0
6381,4.0,773951.0,6.0,39.0,low,high-low,22.0,rod_fixing,rod_fixing,1.0,178.4299999999348,1562775692758.0,1562775692579.0,BLIND,39.0,4.0 22.0,185.0
6382,4.0,773951.0,6.0,39.0,low,high-low,22.0,rod_fixing,rod_fixing,1.0,182.6549999823328,1562775692947.0,1562775692764.0,BLIND,39.0,4.0 22.0,187.0
6383,4.0,773951.0,6.0,39.0,low,high-low,22.0,rod_fixing,rod_fixing,1.0,198.67500002146699,1562775693150.0,1562775692951.0,BLIND,39.0,4.0 22.0,219.0
6513,8.0,773951.0,1.0,39.0,low,high-low,22.0,rod_fixing,rod_fixing,1.0,205.15500000328757,1562775744370.0,1562775744164.0,BLIND,39.0,8.0 22.0,212.0
6514,8.0,773951.0,1.0,39.0,low,high-low,22.0,rod_fixing,rod_fixing,1.0,146.64500000071712,1562775744523.0,1562775744376.0,BLIND,39.0,8.0 22.0,152.0
6515,8.0,773951.0,1.0,39.0,low,high-low,22.0,rod_fixing,rod_fixing,1.0,153.27999999863096,1562775744682.0,1562775744528.0,BLIND,39.0,8.0 22.0,159.0
6516,8.0,773951.0,1.0,39.0,low,high-low,22.0,rod_fixing,rod_fixing,1.0,184.2799999867566,1562775744871.0,1562775744687.0,BLIND,39.0,8.0 22.0,189.0
6517,8.0,773951.0,1.0,39.0,low,high-low,22.0,rod_fixing,rod_fixing,1.0,154.38500000163913,1562775745031.0,1562775744876.0,BLIND,39.0,8.0 22.0,160.0
6518,8.0,773951.0,1.0,39.0,low,high-low,22.0,rod_fixing,rod_fixing,1.0,156.81999997468662,1562775745194.0,1562775745036.0,BLIND,39.0,8.0 22.0,163.0
6519,8.0,773951.0,1.0,39.0,low,high-low,22.0,rod_fixing,rod_fixing,1.0,180.9650000068359,1562775745380.0,1562775745199.0,BLIND,39.0,8.0 22.0,201.0
6675,11.0,773951.0,2.5,39.0,low,high-low,22.0,rod_fixing,rod_fixing,1.0,202.3349999799393,1562775783762.0,1562775783559.0,BLIND,39.0,11.0 22.0,208.0
6676,11.0,773951.0,2.5,39.0,low,high-low,22.0,rod_fixing,rod_fixing,1.0,133.15999999758787,1562775783900.0,1562775783767.0,BLIND,39.0,11.0 22.0,137.0
6677,11.0,773951.0,2.5,39.0,low,high-low,22.0,rod_fixing,rod_fixing,1.0,155.36999999312684,1562775784059.0,1562775783904.0,BLIND,39.0,11.0 22.0,160.0
6678,11.0,773951.0,2.5,39.0,low,high-low,22.0,rod_fixing,rod_fixing,1.0,156.505000020843,1562775784221.0,1562775784064.0,BLIND,39.0,11.0 22.0,162.0
6679,11.0,773951.0,2.5,39.0,low,high-low,22.0,rod_fixing,rod_fixing,1.0,148.33999998518266,1562775784375.0,1562775784226.0,BLIND,39.0,11.0 22.0,153.0
6680,11.0,773951.0,2.5,39.0,low,high-low,22.0,rod_fixing,rod_fixing,1.0,153.44500000355762,1562775784533.0,1562775784379.0,BLIND,39.0,11.0 22.0,158.0
6681,11.0,773951.0,2.5,39.0,low,high-low,22.0,rod_fixing,rod_fixing,1.0,160.730000003241,1562775784699.0,1562775784537.0,BLIND,39.0,11.0 22.0,182.0
41817,3.0,774133.0,6.0,39.0,low,low-high,11.0,rod_fixing,rod_fixing,1.0,185.13499999971827,1562777891815.0,1562777891629.0,BLIND,39.0,3.0 11.0,188.0
41818,3.0,774133.0,6.0,39.0,low,low-high,11.0,rod_fixing,rod_fixing,1.0,157.29000000009546,1562777891975.0,1562777891817.0,BLIND,39.0,3.0 11.0,160.0
41819,3.0,774133.0,6.0,39.0,low,low-high,11.0,rod_fixing,rod_fixing,1.0,143.85500000025786,1562777892122.0,1562777891977.0,BLIND,39.0,3.0 11.0,147.0
41820,3.0,774133.0,6.0,39.0,low,low-high,11.0,rod_fixing,rod_fixing,1.0,143.01999999952386,1562777892267.0,1562777892124.0,BLIND,39.0,3.0 11.0,145.0
41821,3.0,774133.0,6.0,39.0,low,low-high,11.0,rod_fixing,rod_fixing,1.0,273.38499999951455,1562777892543.0,1562777892269.0,BLIND,39.0,3.0 11.0,276.0
41822,3.0,774133.0,6.0,39.0,low,low-high,11.0,rod_fixing,rod_fixing,1.0,127.5999999998021,1562777892674.0,1562777892545.0,BLIND,39.0,3.0 11.0,271.0
42102,7.0,774133.0,0.4,39.0,low,low-high,11.0,rod_fixing,rod_fixing,1.0,161.19500000058906,1562777943771.0,1562777943609.0,BLIND,39.0,7.0 11.0,165.0
42103,7.0,774133.0,0.4,39.0,low,low-high,11.0,rod_fixing,rod_fixing,1.0,161.90000000005242,1562777943937.0,1562777943774.0,BLIND,39.0,7.0 11.0,167.0
42104,7.0,774133.0,0.4,39.0,low,low-high,11.0,rod_fixing,rod_fixing,1.0,156.16000000044002,1562777944097.0,1562777943941.0,BLIND,39.0,7.0 11.0,160.0
42105,7.0,774133.0,0.4,39.0,low,low-high,11.0,rod_fixing,rod_fixing,1.0,161.58999999970547,1562777944263.0,1562777944101.0,BLIND,39.0,7.0 11.0,167.0
42106,7.0,774133.0,0.4,39.0,low,low-high,11.0,rod_fixing,rod_fixing,1.0,170.79999999987194,1562777944439.0,1562777944268.0,BLIND,39.0,7.0 11.0,175.0
42107,7.0,774133.0,0.4,39.0,low,low-high,11.0,rod_fixing,rod_fixing,1.0,116.01999999949476,1562777944560.0,1562777944443.0,BLIND,39.0,7.0 11.0,249.0
42381,11.0,774133.0,5.1,39.0,low,low-high,11.0,rod_fixing,rod_fixing,1.0,150.25999999942724,1562777996203.0,1562777996053.0,BLIND,39.0,11.0 11.0,157.0
42382,11.0,774133.0,5.1,39.0,low,low-high,11.0,rod_fixing,rod_fixing,1.0,203.79500000033292,1562777996414.0,1562777996210.0,BLIND,39.0,11.0 11.0,210.0
42383,11.0,774133.0,5.1,39.0,low,low-high,11.0,rod_fixing,rod_fixing,1.0,144.50000000034925,1562777996565.0,1562777996420.0,BLIND,39.0,11.0 11.0,148.0
42384,11.0,774133.0,5.1,39.0,low,low-high,11.0,rod_fixing,rod_fixing,1.0,162.91000000000352,1562777996731.0,1562777996568.0,BLIND,39.0,11.0 11.0,166.0
42385,11.0,774133.0,5.1,39.0,low,low-high,11.0,rod_fixing,rod_fixing,1.0,172.70999999981723,1562777996907.0,1562777996734.0,BLIND,39.0,11.0 11.0,178.0
42386,11.0,774133.0,5.1,39.0,low,low-high,11.0,rod_fixing,rod_fixing,1.0,130.5449999999837,1562777997043.0,1562777996912.0,BLIND,39.0,11.0 11.0,135.0
42387,11.0,774133.0,5.1,39.0,low,low-high,11.0,rod_fixing,rod_fixing,1.0,316.99500000014086,1562777997364.0,1562777997047.0,BLIND,39.0,11.0 11.0,334.0
42738,4.0,774133.0,0.4,39.0,low,low-high,21.0,rod_fixing,rod_fixing,1.0,215.9899999996414,1562778068473.0,1562778068257.0,BLIND,39.0,4.0 21.0,221.0
42739,4.0,774133.0,0.4,39.0,low,low-high,21.0,rod_fixing,rod_fixing,1.0,135.85499999957392,1562778068615.0,1562778068478.0,BLIND,39.0,4.0 21.0,140.0
42740,4.0,774133.0,0.4,39.0,low,low-high,21.0,rod_fixing,rod_fixing,1.0,150.8000000003376,1562778068769.0,1562778068618.0,BLIND,39.0,4.0 21.0,154.0
42741,4.0,774133.0,0.4,39.0,low,low-high,21.0,rod_fixing,rod_fixing,1.0,153.42999999941094,1562778068926.0,1562778068772.0,BLIND,39.0,4.0 21.0,157.0
42742,4.0,774133.0,0.4,39.0,low,low-high,21.0,rod_fixing,rod_fixing,1.0,162.26000000006755,1562778069092.0,1562778068929.0,BLIND,39.0,4.0 21.0,169.0
42743,4.0,774133.0,0.4,39.0,low,low-high,21.0,rod_fixing,rod_fixing,1.0,163.7000000000116,1562778069263.0,1562778069098.0,BLIND,39.0,4.0 21.0,170.0
42744,4.0,774133.0,0.4,39.0,low,low-high,21.0,rod_fixing,rod_fixing,1.0,360.6350000000093,1562778069629.0,1562778069268.0,BLIND,39.0,4.0 21.0,381.0
43002,8.0,774133.0,1.0,39.0,low,low-high,21.0,rod_fixing,rod_fixing,1.0,205.02500000025609,1562778120884.0,1562778120679.0,BLIND,39.0,8.0 21.0,210.0
43003,8.0,774133.0,1.0,39.0,low,low-high,21.0,rod_fixing,rod_fixing,1.0,161.14500000007683,1562778121051.0,1562778120889.0,BLIND,39.0,8.0 21.0,165.0
43004,8.0,774133.0,1.0,39.0,low,low-high,21.0,rod_fixing,rod_fixing,1.0,141.32499999954598,1562778121196.0,1562778121054.0,BLIND,39.0,8.0 21.0,145.0
43005,8.0,774133.0,1.0,39.0,low,low-high,21.0,rod_fixing,rod_fixing,1.0,161.25500000000466,1562778121361.0,1562778121199.0,BLIND,39.0,8.0 21.0,167.0
43006,8.0,774133.0,1.0,39.0,low,low-high,21.0,rod_fixing,rod_fixing,1.0,291.60500000038877,1562778121658.0,1562778121366.0,BLIND,39.0,8.0 21.0,298.0
43007,8.0,774133.0,1.0,39.0,low,low-high,21.0,rod_fixing,rod_fixing,1.0,139.3100000004633,1562778121804.0,1562778121664.0,BLIND,39.0,8.0 21.0,295.0
43215,11.0,774133.0,0.1,39.0,low,low-high,21.0,rod_fixing,rod_fixing,1.0,209.14999999967404,1562778160461.0,1562778160251.0,BLIND,39.0,11.0 21.0,215.0
43216,11.0,774133.0,0.1,39.0,low,low-high,21.0,rod_fixing,rod_fixing,1.0,162.08999999979278,1562778160629.0,1562778160466.0,BLIND,39.0,11.0 21.0,168.0
43217,11.0,774133.0,0.1,39.0,low,low-high,21.0,rod_fixing,rod_fixing,1.0,173.53499999985797,1562778160808.0,1562778160634.0,BLIND,39.0,11.0 21.0,180.0
43218,11.0,774133.0,0.1,39.0,low,low-high,21.0,rod_fixing,rod_fixing,1.0,149.50000000040743,1562778160964.0,1562778160814.0,BLIND,39.0,11.0 21.0,155.0
43219,11.0,774133.0,0.1,39.0,low,low-high,21.0,rod_fixing,rod_fixing,1.0,174.9399999998859,1562778161145.0,1562778160969.0,BLIND,39.0,11.0 21.0,182.0
43220,11.0,774133.0,0.1,39.0,low,low-high,21.0,rod_fixing,rod_fixing,1.0,238.84999999968568,1562778161390.0,1562778161151.0,BLIND,39.0,11.0 21.0,244.0
43221,11.0,774133.0,0.1,39.0,low,low-high,21.0,rod_fixing,rod_fixing,1.0,185.64000000059605,1562778161582.0,1562778161395.0,BLIND,39.0,11.0 21.0,207.0
43494,3.0,774133.0,6.0,39.0,high,low-high,12.0,rod_fixing,rod_fixing,1.0,163.8000000002212,1562778241076.0,1562778240912.0,BLIND,39.0,3.0 12.0,170.0
43495,3.0,774133.0,6.0,39.0,high,low-high,12.0,rod_fixing,rod_fixing,1.0,129.3949999999022,1562778241212.0,1562778241082.0,BLIND,39.0,3.0 12.0,134.0
43496,3.0,774133.0,6.0,39.0,high,low-high,12.0,rod_fixing,rod_fixing,1.0,58.24500000016997,1562778241275.0,1562778241216.0,BLIND,39.0,3.0 12.0,63.0
43497,3.0,774133.0,6.0,39.0,high,low-high,12.0,rod_fixing,rod_fixing,1.0,154.40500000026074,1562778241434.0,1562778241279.0,BLIND,39.0,3.0 12.0,159.0
43498,3.0,774133.0,6.0,39.0,high,low-high,12.0,rod_fixing,rod_fixing,1.0,137.98500000033528,1562778241577.0,1562778241438.0,BLIND,39.0,3.0 12.0,143.0
43499,3.0,774133.0,6.0,39.0,high,low-high,12.0,rod_fixing,rod_fixing,1.0,245.51500000053784,1562778241827.0,1562778241581.0,BLIND,39.0,3.0 12.0,252.0
43500,3.0,774133.0,6.0,39.0,high,low-high,12.0,rod_fixing,rod_fixing,1.0,167.91999999986731,1562778242002.0,1562778241833.0,BLIND,39.0,3.0 12.0,193.0
43831,7.0,774133.0,0.4,39.0,high,low-high,12.0,rod_fixing,rod_fixing,1.0,163.88000000006286,1562778293090.0,1562778292925.0,BLIND,39.0,7.0 12.0,169.0
43832,7.0,774133.0,0.4,39.0,high,low-high,12.0,rod_fixing,rod_fixing,1.0,141.12500000011642,1562778293236.0,1562778293094.0,BLIND,39.0,7.0 12.0,146.0
43833,7.0,774133.0,0.4,39.0,high,low-high,12.0,rod_fixing,rod_fixing,1.0,141.16499999997905,1562778293382.0,1562778293240.0,BLIND,39.0,7.0 12.0,147.0
43834,7.0,774133.0,0.4,39.0,high,low-high,12.0,rod_fixing,rod_fixing,1.0,125.69500000058906,1562778293513.0,1562778293387.0,BLIND,39.0,7.0 12.0,130.0
43835,7.0,774133.0,0.4,39.0,high,low-high,12.0,rod_fixing,rod_fixing,1.0,115.94500000047265,1562778293634.0,1562778293517.0,BLIND,39.0,7.0 12.0,121.0
43836,7.0,774133.0,0.4,39.0,high,low-high,12.0,rod_fixing,rod_fixing,1.0,156.29000000079398,1562778293795.0,1562778293638.0,BLIND,39.0,7.0 12.0,392.0
44145,11.0,774133.0,5.1,39.0,high,low-high,12.0,rod_fixing,rod_fixing,1.0,137.53499999991618,1562778345459.0,1562778345321.0,BLIND,39.0,11.0 12.0,143.0
44146,11.0,774133.0,5.1,39.0,high,low-high,12.0,rod_fixing,rod_fixing,1.0,144.87000000011176,1562778345610.0,1562778345464.0,BLIND,39.0,11.0 12.0,151.0
44147,11.0,774133.0,5.1,39.0,high,low-high,12.0,rod_fixing,rod_fixing,1.0,135.27000000071712,1562778345751.0,1562778345615.0,BLIND,39.0,11.0 12.0,141.0
44148,11.0,774133.0,5.1,39.0,high,low-high,12.0,rod_fixing,rod_fixing,1.0,143.84999999939464,1562778345901.0,1562778345756.0,BLIND,39.0,11.0 12.0,151.0
44149,11.0,774133.0,5.1,39.0,high,low-high,12.0,rod_fixing,rod_fixing,1.0,139.5849999998463,1562778346047.0,1562778345907.0,BLIND,39.0,11.0 12.0,147.0
44150,11.0,774133.0,5.1,39.0,high,low-high,12.0,rod_fixing,rod_fixing,1.0,138.06500000006054,1562778346193.0,1562778346054.0,BLIND,39.0,11.0 12.0,279.0
44554,4.0,774133.0,0.4,39.0,high,low-high,22.0,rod_fixing,rod_fixing,1.0,119.33499999938068,1562778446938.0,1562778446818.0,BLIND,39.0,4.0 22.0,125.0
44555,4.0,774133.0,0.4,39.0,high,low-high,22.0,rod_fixing,rod_fixing,1.0,149.91500000003725,1562778447094.0,1562778446943.0,BLIND,39.0,4.0 22.0,156.0
44556,4.0,774133.0,0.4,39.0,high,low-high,22.0,rod_fixing,rod_fixing,1.0,139.8049999998184,1562778447239.0,1562778447099.0,BLIND,39.0,4.0 22.0,146.0
44557,4.0,774133.0,0.4,39.0,high,low-high,22.0,rod_fixing,rod_fixing,1.0,145.17999999958556,1562778447391.0,1562778447245.0,BLIND,39.0,4.0 22.0,151.0
44558,4.0,774133.0,0.4,39.0,high,low-high,22.0,rod_fixing,rod_fixing,1.0,144.93000000040047,1562778447542.0,1562778447396.0,BLIND,39.0,4.0 22.0,152.0
44559,4.0,774133.0,0.4,39.0,high,low-high,22.0,rod_fixing,rod_fixing,1.0,128.64999999967407,1562778447677.0,1562778447548.0,BLIND,39.0,4.0 22.0,294.0
44837,8.0,774133.0,1.0,39.0,high,low-high,22.0,rod_fixing,rod_fixing,1.0,182.49499999999531,1562778499374.0,1562778499191.0,BLIND,39.0,8.0 22.0,191.0
44838,8.0,774133.0,1.0,39.0,high,low-high,22.0,rod_fixing,rod_fixing,1.0,141.4949999998789,1562778499524.0,1562778499382.0,BLIND,39.0,8.0 22.0,150.0
44839,8.0,774133.0,1.0,39.0,high,low-high,22.0,rod_fixing,rod_fixing,1.0,183.3900000001304,1562778499716.0,1562778499532.0,BLIND,39.0,8.0 22.0,191.0
44840,8.0,774133.0,1.0,39.0,high,low-high,22.0,rod_fixing,rod_fixing,1.0,143.1150000008056,1562778499867.0,1562778499723.0,BLIND,39.0,8.0 22.0,151.0
44841,8.0,774133.0,1.0,39.0,high,low-high,22.0,rod_fixing,rod_fixing,1.0,253.59000000031662,1562778500129.0,1562778499874.0,BLIND,39.0,8.0 22.0,262.0
44842,8.0,774133.0,1.0,39.0,high,low-high,22.0,rod_fixing,rod_fixing,1.0,167.91500000003725,1562778500305.0,1562778500136.0,BLIND,39.0,8.0 22.0,176.0
44843,8.0,774133.0,1.0,39.0,high,low-high,22.0,rod_fixing,rod_fixing,1.0,173.6700000000419,1562778500486.0,1562778500312.0,BLIND,39.0,8.0 22.0,205.0
45077,11.0,774133.0,0.1,39.0,high,low-high,22.0,rod_fixing,rod_fixing,1.0,162.98999999975788,1562778538476.0,1562778538312.0,BLIND,39.0,11.0 22.0,171.0
45078,11.0,774133.0,0.1,39.0,high,low-high,22.0,rod_fixing,rod_fixing,1.0,143.4850000004517,1562778538627.0,1562778538483.0,BLIND,39.0,11.0 22.0,152.0
45079,11.0,774133.0,0.1,39.0,high,low-high,22.0,rod_fixing,rod_fixing,1.0,141.9200000000419,1562778538778.0,1562778538635.0,BLIND,39.0,11.0 22.0,149.0
45080,11.0,774133.0,0.1,39.0,high,low-high,22.0,rod_fixing,rod_fixing,1.0,254.8450000004377,1562778539040.0,1562778538784.0,BLIND,39.0,11.0 22.0,263.0
45081,11.0,774133.0,0.1,39.0,high,low-high,22.0,rod_fixing,rod_fixing,1.0,187.7949999998091,1562778539236.0,1562778539047.0,BLIND,39.0,11.0 22.0,196.0
45082,11.0,774133.0,0.1,39.0,high,low-high,22.0,rod_fixing,rod_fixing,1.0,132.68500000052154,1562778539376.0,1562778539243.0,BLIND,39.0,11.0 22.0,311.0
38021,3.0,774153.0,1.0,39.0,low,low-high,11.0,rod_fixing,rod_fixing,1.0,125.95999997574837,1562777748755.0,1562777748628.0,BLIND,39.0,3.0 11.0,128.0
38022,3.0,774153.0,1.0,39.0,low,low-high,11.0,rod_fixing,rod_fixing,1.0,165.7450000056997,1562777748922.0,1562777748756.0,BLIND,39.0,3.0 11.0,168.0
38023,3.0,774153.0,1.0,39.0,low,low-high,11.0,rod_fixing,rod_fixing,1.0,158.63999992143363,1562777749082.0,1562777748924.0,BLIND,39.0,3.0 11.0,161.0
38024,3.0,774153.0,1.0,39.0,low,low-high,11.0,rod_fixing,rod_fixing,1.0,156.9649999728426,1562777749242.0,1562777749085.0,BLIND,39.0,3.0 11.0,158.0
38025,3.0,774153.0,1.0,39.0,low,low-high,11.0,rod_fixing,rod_fixing,1.0,158.88000000268218,1562777749403.0,1562777749243.0,BLIND,39.0,3.0 11.0,161.0
38026,3.0,774153.0,1.0,39.0,low,low-high,11.0,rod_fixing,rod_fixing,1.0,165.85500002838668,1562777749570.0,1562777749404.0,BLIND,39.0,3.0 11.0,167.0
38027,3.0,774153.0,1.0,39.0,low,low-high,11.0,rod_fixing,rod_fixing,1.0,158.70999998878688,1562777749730.0,1562777749571.0,BLIND,39.0,3.0 11.0,165.0
38335,7.0,774153.0,1.0,39.0,low,low-high,11.0,rod_fixing,rod_fixing,1.0,174.2249999660999,1562777800835.0,1562777800660.0,BLIND,39.0,7.0 11.0,177.0
38336,7.0,774153.0,1.0,39.0,low,low-high,11.0,rod_fixing,rod_fixing,1.0,164.86000001896173,1562777801002.0,1562777800837.0,BLIND,39.0,7.0 11.0,167.0
38337,7.0,774153.0,1.0,39.0,low,low-high,11.0,rod_fixing,rod_fixing,1.0,150.4399999976158,1562777801154.0,1562777801004.0,BLIND,39.0,7.0 11.0,152.0
38338,7.0,774153.0,1.0,39.0,low,low-high,11.0,rod_fixing,rod_fixing,1.0,165.73000000789762,1562777801322.0,1562777801156.0,BLIND,39.0,7.0 11.0,168.0
38339,7.0,774153.0,1.0,39.0,low,low-high,11.0,rod_fixing,rod_fixing,1.0,165.89499998372048,1562777801490.0,1562777801324.0,BLIND,39.0,7.0 11.0,168.0
38340,7.0,774153.0,1.0,39.0,low,low-high,11.0,rod_fixing,rod_fixing,1.0,166.6749999858439,1562777801659.0,1562777801492.0,BLIND,39.0,7.0 11.0,169.0
38341,7.0,774153.0,1.0,39.0,low,low-high,11.0,rod_fixing,rod_fixing,1.0,157.355000032112,1562777801818.0,1562777801661.0,BLIND,39.0,7.0 11.0,162.0
38651,11.0,774153.0,5.1,39.0,low,low-high,11.0,rod_fixing,rod_fixing,1.0,157.51000004820523,1562777853226.0,1562777853068.0,BLIND,39.0,11.0 11.0,159.0
38652,11.0,774153.0,5.1,39.0,low,low-high,11.0,rod_fixing,rod_fixing,1.0,174.7550000436604,1562777853402.0,1562777853227.0,BLIND,39.0,11.0 11.0,176.0
38653,11.0,774153.0,5.1,39.0,low,low-high,11.0,rod_fixing,rod_fixing,1.0,158.50500005763024,1562777853562.0,1562777853403.0,BLIND,39.0,11.0 11.0,160.0
38654,11.0,774153.0,5.1,39.0,low,low-high,11.0,rod_fixing,rod_fixing,1.0,166.07499995734543,1562777853730.0,1562777853563.0,BLIND,39.0,11.0 11.0,168.0
38655,11.0,774153.0,5.1,39.0,low,low-high,11.0,rod_fixing,rod_fixing,1.0,174.60499994922432,1562777853906.0,1562777853731.0,BLIND,39.0,11.0 11.0,177.0
38656,11.0,774153.0,5.1,39.0,low,low-high,11.0,rod_fixing,rod_fixing,1.0,142.00999995227903,1562777854050.0,1562777853908.0,BLIND,39.0,11.0 11.0,144.0
38657,11.0,774153.0,5.1,39.0,low,low-high,11.0,rod_fixing,rod_fixing,1.0,166.52999992948025,1562777854219.0,1562777854052.0,BLIND,39.0,11.0 11.0,172.0
39047,4.0,774153.0,5.1,39.0,low,low-high,21.0,rod_fixing,rod_fixing,1.0,173.51999995298684,1562777930171.0,1562777929997.0,BLIND,39.0,4.0 21.0,176.0
39048,4.0,774153.0,5.1,39.0,low,low-high,21.0,rod_fixing,rod_fixing,1.0,166.1749999038875,1562777930339.0,1562777930173.0,BLIND,39.0,4.0 21.0,168.0
39049,4.0,774153.0,5.1,39.0,low,low-high,21.0,rod_fixing,rod_fixing,1.0,157.23500004969537,1562777930498.0,1562777930341.0,BLIND,39.0,4.0 21.0,159.0
39050,4.0,774153.0,5.1,39.0,low,low-high,21.0,rod_fixing,rod_fixing,1.0,166.02500004228202,1562777930667.0,1562777930500.0,BLIND,39.0,4.0 21.0,169.0
39051,4.0,774153.0,5.1,39.0,low,low-high,21.0,rod_fixing,rod_fixing,1.0,158.2199999829754,1562777930827.0,1562777930669.0,BLIND,39.0,4.0 21.0,160.0
39052,4.0,774153.0,5.1,39.0,low,low-high,21.0,rod_fixing,rod_fixing,1.0,173.32499998155984,1562777931003.0,1562777930829.0,BLIND,39.0,4.0 21.0,175.0
39053,4.0,774153.0,5.1,39.0,low,low-high,21.0,rod_fixing,rod_fixing,1.0,173.88500005472454,1562777931179.0,1562777931004.0,BLIND,39.0,4.0 21.0,181.0
39367,8.0,774153.0,2.5,39.0,low,low-high,21.0,rod_fixing,rod_fixing,1.0,213.64500001072884,1562777982667.0,1562777982453.0,BLIND,39.0,8.0 21.0,216.0
39368,8.0,774153.0,2.5,39.0,low,low-high,21.0,rod_fixing,rod_fixing,1.0,189.39499999396503,1562777982859.0,1562777982669.0,BLIND,39.0,8.0 21.0,192.0
39369,8.0,774153.0,2.5,39.0,low,low-high,21.0,rod_fixing,rod_fixing,1.0,174.27499999757853,1562777983035.0,1562777982861.0,BLIND,39.0,8.0 21.0,176.0
39370,8.0,774153.0,2.5,39.0,low,low-high,21.0,rod_fixing,rod_fixing,1.0,181.0500000137836,1562777983219.0,1562777983037.0,BLIND,39.0,8.0 21.0,184.0
39371,8.0,774153.0,2.5,39.0,low,low-high,21.0,rod_fixing,rod_fixing,1.0,189.52000001445413,1562777983411.0,1562777983221.0,BLIND,39.0,8.0 21.0,192.0
39372,8.0,774153.0,2.5,39.0,low,low-high,21.0,rod_fixing,rod_fixing,1.0,165.64000002108511,1562777983579.0,1562777983413.0,BLIND,39.0,8.0 21.0,168.0
39373,8.0,774153.0,2.5,39.0,low,low-high,21.0,rod_fixing,rod_fixing,1.0,174.06500002834946,1562777983755.0,1562777983581.0,BLIND,39.0,8.0 21.0,180.0
39586,11.0,774153.0,0.1,39.0,low,low-high,21.0,rod_fixing,rod_fixing,1.0,157.11999998893592,1562778021634.0,1562778021477.0,BLIND,39.0,11.0 21.0,159.0
39587,11.0,774153.0,0.1,39.0,low,low-high,21.0,rod_fixing,rod_fixing,1.0,157.66999998595566,1562778021794.0,1562778021636.0,BLIND,39.0,11.0 21.0,160.0
39588,11.0,774153.0,0.1,39.0,low,low-high,21.0,rod_fixing,rod_fixing,1.0,141.4899999508634,1562778021938.0,1562778021796.0,BLIND,39.0,11.0 21.0,144.0
39589,11.0,774153.0,0.1,39.0,low,low-high,21.0,rod_fixing,rod_fixing,1.0,157.92500006500632,1562778022098.0,1562778021940.0,BLIND,39.0,11.0 21.0,161.0
39590,11.0,774153.0,0.1,39.0,low,low-high,21.0,rod_fixing,rod_fixing,1.0,165.61000002548099,1562778022267.0,1562778022101.0,BLIND,39.0,11.0 21.0,168.0
39591,11.0,774153.0,0.1,39.0,low,low-high,21.0,rod_fixing,rod_fixing,1.0,149.02000001166016,1562778022418.0,1562778022269.0,BLIND,39.0,11.0 21.0,152.0
39592,11.0,774153.0,0.1,39.0,low,low-high,21.0,rod_fixing,rod_fixing,1.0,141.4249999215826,1562778022562.0,1562778022421.0,BLIND,39.0,11.0 21.0,149.0
39920,3.0,774153.0,1.0,39.0,high,low-high,12.0,rod_fixing,rod_fixing,1.0,157.54499996546656,1562778110203.0,1562778110045.0,BLIND,39.0,3.0 12.0,160.0
39921,3.0,774153.0,1.0,39.0,high,low-high,12.0,rod_fixing,rod_fixing,1.0,165.09000002406538,1562778110370.0,1562778110205.0,BLIND,39.0,3.0 12.0,168.0
39922,3.0,774153.0,1.0,39.0,high,low-high,12.0,rod_fixing,rod_fixing,1.0,150.04999993834645,1562778110523.0,1562778110373.0,BLIND,39.0,3.0 12.0,152.0
39923,3.0,774153.0,1.0,39.0,high,low-high,12.0,rod_fixing,rod_fixing,1.0,164.77000003214926,1562778110690.0,1562778110525.0,BLIND,39.0,3.0 12.0,168.0
39924,3.0,774153.0,1.0,39.0,high,low-high,12.0,rod_fixing,rod_fixing,1.0,165.73999996762726,1562778110859.0,1562778110693.0,BLIND,39.0,3.0 12.0,168.0
39925,3.0,774153.0,1.0,39.0,high,low-high,12.0,rod_fixing,rod_fixing,1.0,156.97499993257225,1562778111019.0,1562778110861.0,BLIND,39.0,3.0 12.0,160.0
39926,3.0,774153.0,1.0,39.0,high,low-high,12.0,rod_fixing,rod_fixing,1.0,165.27499991934747,1562778111187.0,1562778111021.0,BLIND,39.0,3.0 12.0,175.0
40219,7.0,774153.0,1.0,39.0,high,low-high,12.0,rod_fixing,rod_fixing,1.0,150.35999997053298,1562778162532.0,1562778162381.0,BLIND,39.0,7.0 12.0,154.0
40220,7.0,774153.0,1.0,39.0,high,low-high,12.0,rod_fixing,rod_fixing,1.0,163.11500000301746,1562778162698.0,1562778162535.0,BLIND,39.0,7.0 12.0,166.0
40221,7.0,774153.0,1.0,39.0,high,low-high,12.0,rod_fixing,rod_fixing,1.0,158.92499999608842,1562778162860.0,1562778162701.0,BLIND,39.0,7.0 12.0,161.0
40222,7.0,774153.0,1.0,39.0,high,low-high,12.0,rod_fixing,rod_fixing,1.0,148.54500000365078,1562778163011.0,1562778162862.0,BLIND,39.0,7.0 12.0,152.0
40223,7.0,774153.0,1.0,39.0,high,low-high,12.0,rod_fixing,rod_fixing,1.0,148.69999990332872,1562778163163.0,1562778163014.0,BLIND,39.0,7.0 12.0,152.0
40224,7.0,774153.0,1.0,39.0,high,low-high,12.0,rod_fixing,rod_fixing,1.0,164.3550000153482,1562778163331.0,1562778163166.0,BLIND,39.0,7.0 12.0,167.0
40225,7.0,774153.0,1.0,39.0,high,low-high,12.0,rod_fixing,rod_fixing,1.0,149.7850000159815,1562778163483.0,1562778163333.0,BLIND,39.0,7.0 12.0,159.0
40535,11.0,774153.0,5.1,39.0,high,low-high,12.0,rod_fixing,rod_fixing,1.0,164.9550000438467,1562778214970.0,1562778214805.0,BLIND,39.0,11.0 12.0,168.0
40536,11.0,774153.0,5.1,39.0,high,low-high,12.0,rod_fixing,rod_fixing,1.0,181.25000002328304,1562778215155.0,1562778214973.0,BLIND,39.0,11.0 12.0,184.0
40537,11.0,774153.0,5.1,39.0,high,low-high,12.0,rod_fixing,rod_fixing,1.0,172.9899999918416,1562778215331.0,1562778215157.0,BLIND,39.0,11.0 12.0,177.0
40538,11.0,774153.0,5.1,39.0,high,low-high,12.0,rod_fixing,rod_fixing,1.0,165.00999999698254,1562778215499.0,1562778215334.0,BLIND,39.0,11.0 12.0,168.0
40539,11.0,774153.0,5.1,39.0,high,low-high,12.0,rod_fixing,rod_fixing,1.0,156.79499995894733,1562778215659.0,1562778215502.0,BLIND,39.0,11.0 12.0,160.0
40540,11.0,774153.0,5.1,39.0,high,low-high,12.0,rod_fixing,rod_fixing,1.0,173.0550000211224,1562778215835.0,1562778215662.0,BLIND,39.0,11.0 12.0,176.0
40541,11.0,774153.0,5.1,39.0,high,low-high,12.0,rod_fixing,rod_fixing,1.0,173.18500007968396,1562778216011.0,1562778215838.0,BLIND,39.0,11.0 12.0,183.0
40956,4.0,774153.0,5.1,39.0,high,low-high,22.0,rod_fixing,rod_fixing,1.0,147.83999999053776,1562778349283.0,1562778349135.0,BLIND,39.0,4.0 22.0,152.0
40957,4.0,774153.0,5.1,39.0,high,low-high,22.0,rod_fixing,rod_fixing,1.0,139.0400000382215,1562778349427.0,1562778349287.0,BLIND,39.0,4.0 22.0,142.0
40958,4.0,774153.0,5.1,39.0,high,low-high,22.0,rod_fixing,rod_fixing,1.0,157.44500001892447,1562778349587.0,1562778349429.0,BLIND,39.0,4.0 22.0,161.0
40959,4.0,774153.0,5.1,39.0,high,low-high,22.0,rod_fixing,rod_fixing,1.0,156.52499999850988,1562778349747.0,1562778349590.0,BLIND,39.0,4.0 22.0,159.0
40960,4.0,774153.0,5.1,39.0,high,low-high,22.0,rod_fixing,rod_fixing,1.0,158.30499993171543,1562778349908.0,1562778349749.0,BLIND,39.0,4.0 22.0,162.0
40961,4.0,774153.0,5.1,39.0,high,low-high,22.0,rod_fixing,rod_fixing,1.0,147.82000007107854,1562778350059.0,1562778349911.0,BLIND,39.0,4.0 22.0,151.0
40962,4.0,774153.0,5.1,39.0,high,low-high,22.0,rod_fixing,rod_fixing,1.0,173.4400000423193,1562778350235.0,1562778350062.0,BLIND,39.0,4.0 22.0,185.0
41288,8.0,774153.0,2.5,39.0,high,low-high,22.0,rod_fixing,rod_fixing,1.0,172.84999997355047,1562778401635.0,1562778401462.0,BLIND,39.0,8.0 22.0,177.0
41289,8.0,774153.0,2.5,39.0,high,low-high,22.0,rod_fixing,rod_fixing,1.0,163.92500000074506,1562778401804.0,1562778401639.0,BLIND,39.0,8.0 22.0,168.0
41290,8.0,774153.0,2.5,39.0,high,low-high,22.0,rod_fixing,rod_fixing,1.0,155.54499998688698,1562778401963.0,1562778401807.0,BLIND,39.0,8.0 22.0,159.0
41291,8.0,774153.0,2.5,39.0,high,low-high,22.0,rod_fixing,rod_fixing,1.0,156.36000002268705,1562778402123.0,1562778401966.0,BLIND,39.0,8.0 22.0,160.0
41292,8.0,774153.0,2.5,39.0,high,low-high,22.0,rod_fixing,rod_fixing,1.0,172.5799998966977,1562778402299.0,1562778402126.0,BLIND,39.0,8.0 22.0,176.0
41293,8.0,774153.0,2.5,39.0,high,low-high,22.0,rod_fixing,rod_fixing,1.0,165.15499993693084,1562778402468.0,1562778402302.0,BLIND,39.0,8.0 22.0,171.0
41294,8.0,774153.0,2.5,39.0,high,low-high,22.0,rod_fixing,rod_fixing,1.0,161.71499993652102,1562778402635.0,1562778402473.0,BLIND,39.0,8.0 22.0,175.0
41528,11.0,774153.0,0.1,39.0,high,low-high,22.0,rod_fixing,rod_fixing,1.0,155.81000002566725,1562778440931.0,1562778440775.0,BLIND,39.0,11.0 22.0,160.0
41529,11.0,774153.0,0.1,39.0,high,low-high,22.0,rod_fixing,rod_fixing,1.0,172.05499997362494,1562778441107.0,1562778440935.0,BLIND,39.0,11.0 22.0,176.0
41530,11.0,774153.0,0.1,39.0,high,low-high,22.0,rod_fixing,rod_fixing,1.0,180.03500008489937,1562778441291.0,1562778441111.0,BLIND,39.0,11.0 22.0,184.0
41531,11.0,774153.0,0.1,39.0,high,low-high,22.0,rod_fixing,rod_fixing,1.0,148.10000010766092,1562778441443.0,1562778441295.0,BLIND,39.0,11.0 22.0,152.0
41532,11.0,774153.0,0.1,39.0,high,low-high,22.0,rod_fixing,rod_fixing,1.0,180.17499998677516,1562778441627.0,1562778441447.0,BLIND,39.0,11.0 22.0,183.0
41533,11.0,774153.0,0.1,39.0,high,low-high,22.0,rod_fixing,rod_fixing,1.0,164.23499991651624,1562778441795.0,1562778441630.0,BLIND,39.0,11.0 22.0,168.0
41534,11.0,774153.0,0.1,39.0,high,low-high,22.0,rod_fixing,rod_fixing,1.0,172.52499994356185,1562778441971.0,1562778441798.0,BLIND,39.0,11.0 22.0,185.0
45378,3.0,774164.0,0.1,39.0,low,low-high,11.0,rod_fixing,rod_fixing,1.0,175.05499999970195,1562778313239.0,1562778313064.0,BLIND,39.0,3.0 11.0,178.0
45379,3.0,774164.0,0.1,39.0,low,low-high,11.0,rod_fixing,rod_fixing,1.0,166.18000005837533,1562778313408.0,1562778313242.0,BLIND,39.0,3.0 11.0,168.0
45380,3.0,774164.0,0.1,39.0,low,low-high,11.0,rod_fixing,rod_fixing,1.0,182.62500001583248,1562778313593.0,1562778313410.0,BLIND,39.0,3.0 11.0,185.0
45381,3.0,774164.0,0.1,39.0,low,low-high,11.0,rod_fixing,rod_fixing,1.0,185.24000002071259,1562778313781.0,1562778313595.0,BLIND,39.0,3.0 11.0,188.0
45382,3.0,774164.0,0.1,39.0,low,low-high,11.0,rod_fixing,rod_fixing,1.0,179.82499999925494,1562778313963.0,1562778313783.0,BLIND,39.0,3.0 11.0,182.0
45383,3.0,774164.0,0.1,39.0,low,low-high,11.0,rod_fixing,rod_fixing,1.0,180.01499993260947,1562778314145.0,1562778313965.0,BLIND,39.0,3.0 11.0,182.0
45384,3.0,774164.0,0.1,39.0,low,low-high,11.0,rod_fixing,rod_fixing,1.0,191.54499995056543,1562778314339.0,1562778314147.0,BLIND,39.0,3.0 11.0,199.0
45684,7.0,774164.0,5.1,39.0,low,low-high,11.0,rod_fixing,rod_fixing,1.0,144.4299999857321,1562778365187.0,1562778365042.0,BLIND,39.0,7.0 11.0,150.0
45685,7.0,774164.0,5.1,39.0,low,low-high,11.0,rod_fixing,rod_fixing,1.0,179.1499999817461,1562778365373.0,1562778365192.0,BLIND,39.0,7.0 11.0,184.0
45686,7.0,774164.0,5.1,39.0,low,low-high,11.0,rod_fixing,rod_fixing,1.0,158.96500006783754,1562778365536.0,1562778365376.0,BLIND,39.0,7.0 11.0,163.0
45687,7.0,774164.0,5.1,39.0,low,low-high,11.0,rod_fixing,rod_fixing,1.0,162.96500002499667,1562778365703.0,1562778365539.0,BLIND,39.0,7.0 11.0,167.0
45688,7.0,774164.0,5.1,39.0,low,low-high,11.0,rod_fixing,rod_fixing,1.0,178.58000006526711,1562778365885.0,1562778365706.0,BLIND,39.0,7.0 11.0,183.0
45689,7.0,774164.0,5.1,39.0,low,low-high,11.0,rod_fixing,rod_fixing,1.0,163.12500007916242,1562778366053.0,1562778365889.0,BLIND,39.0,7.0 11.0,170.0
45690,7.0,774164.0,5.1,39.0,low,low-high,11.0,rod_fixing,rod_fixing,1.0,155.78999998979268,1562778366215.0,1562778366059.0,BLIND,39.0,7.0 11.0,167.0
45968,11.0,774164.0,0.1,39.0,low,low-high,11.0,rod_fixing,rod_fixing,1.0,153.44999998342246,1562778417756.0,1562778417602.0,BLIND,39.0,11.0 11.0,157.0
45969,11.0,774164.0,0.1,39.0,low,low-high,11.0,rod_fixing,rod_fixing,1.0,152.37000002525747,1562778417911.0,1562778417759.0,BLIND,39.0,11.0 11.0,155.0
45970,11.0,774164.0,0.1,39.0,low,low-high,11.0,rod_fixing,rod_fixing,1.0,179.49000000953674,1562778418094.0,1562778417914.0,BLIND,39.0,11.0 11.0,183.0
45971,11.0,774164.0,0.1,39.0,low,low-high,11.0,rod_fixing,rod_fixing,1.0,165.7350000459701,1562778418263.0,1562778418097.0,BLIND,39.0,11.0 11.0,168.0
45972,11.0,774164.0,0.1,39.0,low,low-high,11.0,rod_fixing,rod_fixing,1.0,166.01000004447997,1562778418432.0,1562778418265.0,BLIND,39.0,11.0 11.0,169.0
45973,11.0,774164.0,0.1,39.0,low,low-high,11.0,rod_fixing,rod_fixing,1.0,171.2399999378249,1562778418606.0,1562778418434.0,BLIND,39.0,11.0 11.0,175.0
45974,11.0,774164.0,0.1,39.0,low,low-high,11.0,rod_fixing,rod_fixing,1.0,165.58499995153397,1562778418775.0,1562778418609.0,BLIND,39.0,11.0 11.0,176.0
46340,4.0,774164.0,1.0,39.0,low,low-high,21.0,rod_fixing,rod_fixing,1.0,350.68500007037073,1562778518766.0,1562778518415.0,BLIND,39.0,4.0 21.0,354.0
46341,4.0,774164.0,1.0,39.0,low,low-high,21.0,rod_fixing,rod_fixing,1.0,159.98500003479418,1562778518929.0,1562778518769.0,BLIND,39.0,4.0 21.0,163.0
46342,4.0,774164.0,1.0,39.0,low,low-high,21.0,rod_fixing,rod_fixing,1.0,165.6500000972301,1562778519098.0,1562778518932.0,BLIND,39.0,4.0 21.0,169.0
46343,4.0,774164.0,1.0,39.0,low,low-high,21.0,rod_fixing,rod_fixing,1.0,163.2850000169128,1562778519265.0,1562778519101.0,BLIND,39.0,4.0 21.0,167.0
46344,4.0,774164.0,1.0,39.0,low,low-high,21.0,rod_fixing,rod_fixing,1.0,165.47500004526228,1562778519434.0,1562778519268.0,BLIND,39.0,4.0 21.0,169.0
46345,4.0,774164.0,1.0,39.0,low,low-high,21.0,rod_fixing,rod_fixing,1.0,157.36999991349873,1562778519595.0,1562778519437.0,BLIND,39.0,4.0 21.0,160.0
46346,4.0,774164.0,1.0,39.0,low,low-high,21.0,rod_fixing,rod_fixing,1.0,320.5249999882653,1562778519918.0,1562778519597.0,BLIND,39.0,4.0 21.0,333.0
46607,8.0,774164.0,5.1,39.0,low,low-high,21.0,rod_fixing,rod_fixing,1.0,201.740000047721,1562778571145.0,1562778570943.0,BLIND,39.0,8.0 21.0,205.0
46608,8.0,774164.0,5.1,39.0,low,low-high,21.0,rod_fixing,rod_fixing,1.0,189.54499997198585,1562778571338.0,1562778571148.0,BLIND,39.0,8.0 21.0,193.0
46609,8.0,774164.0,5.1,39.0,low,low-high,21.0,rod_fixing,rod_fixing,1.0,162.85500000230968,1562778571504.0,1562778571341.0,BLIND,39.0,8.0 21.0,166.0
46610,8.0,774164.0,5.1,39.0,low,low-high,21.0,rod_fixing,rod_fixing,1.0,203.0399999348447,1562778571711.0,1562778571507.0,BLIND,39.0,8.0 21.0,207.0
46611,8.0,774164.0,5.1,39.0,low,low-high,21.0,rod_fixing,rod_fixing,1.0,197.7150000166148,1562778571912.0,1562778571714.0,BLIND,39.0,8.0 21.0,202.0
46612,8.0,774164.0,5.1,39.0,low,low-high,21.0,rod_fixing,rod_fixing,1.0,207.53000001423058,1562778572124.0,1562778571916.0,BLIND,39.0,8.0 21.0,211.0
46613,8.0,774164.0,5.1,39.0,low,low-high,21.0,rod_fixing,rod_fixing,1.0,213.97499996237457,1562778572342.0,1562778572127.0,BLIND,39.0,8.0 21.0,228.0
46830,11.0,774164.0,0.1,39.0,low,low-high,21.0,rod_fixing,rod_fixing,1.0,165.25999992154541,1562778610332.0,1562778610166.0,BLIND,39.0,11.0 21.0,169.0
46831,11.0,774164.0,0.1,39.0,low,low-high,21.0,rod_fixing,rod_fixing,1.0,170.76500004623085,1562778610506.0,1562778610335.0,BLIND,39.0,11.0 21.0,175.0
46832,11.0,774164.0,0.1,39.0,low,low-high,21.0,rod_fixing,rod_fixing,1.0,165.28000007383525,1562778610675.0,1562778610510.0,BLIND,39.0,11.0 21.0,169.0
46833,11.0,774164.0,0.1,39.0,low,low-high,21.0,rod_fixing,rod_fixing,1.0,165.04499991424382,1562778610844.0,1562778610679.0,BLIND,39.0,11.0 21.0,168.0
46834,11.0,774164.0,0.1,39.0,low,low-high,21.0,rod_fixing,rod_fixing,1.0,151.95999993011355,1562778611000.0,1562778610847.0,BLIND,39.0,11.0 21.0,156.0
46835,11.0,774164.0,0.1,39.0,low,low-high,21.0,rod_fixing,rod_fixing,1.0,181.1350000789389,1562778611185.0,1562778611003.0,BLIND,39.0,11.0 21.0,185.0
46836,11.0,774164.0,0.1,39.0,low,low-high,21.0,rod_fixing,rod_fixing,1.0,176.39499995857474,1562778611364.0,1562778611188.0,BLIND,39.0,11.0 21.0,188.0
47134,3.0,774164.0,0.1,39.0,high,low-high,12.0,rod_fixing,rod_fixing,1.0,120.604999945499,1562778729703.0,1562778729582.0,BLIND,39.0,3.0 12.0,124.0
47135,3.0,774164.0,0.1,39.0,high,low-high,12.0,rod_fixing,rod_fixing,1.0,162.2199999401346,1562778729869.0,1562778729706.0,BLIND,39.0,3.0 12.0,167.0
47136,3.0,774164.0,0.1,39.0,high,low-high,12.0,rod_fixing,rod_fixing,1.0,148.36999995168296,1562778730022.0,1562778729873.0,BLIND,39.0,3.0 12.0,153.0
47137,3.0,774164.0,0.1,39.0,high,low-high,12.0,rod_fixing,rod_fixing,1.0,162.00000001117587,1562778730188.0,1562778730026.0,BLIND,39.0,3.0 12.0,167.0
47138,3.0,774164.0,0.1,39.0,high,low-high,12.0,rod_fixing,rod_fixing,1.0,158.4550000261515,1562778730352.0,1562778730193.0,BLIND,39.0,3.0 12.0,163.0
47139,3.0,774164.0,0.1,39.0,high,low-high,12.0,rod_fixing,rod_fixing,1.0,156.32499998901042,1562778730513.0,1562778730356.0,BLIND,39.0,3.0 12.0,160.0
47140,3.0,774164.0,0.1,39.0,high,low-high,12.0,rod_fixing,rod_fixing,1.0,170.58999999426302,1562778730687.0,1562778730516.0,BLIND,39.0,3.0 12.0,187.0
47465,7.0,774164.0,5.1,39.0,high,low-high,12.0,rod_fixing,rod_fixing,1.0,161.2650000024587,1562778781854.0,1562778781692.0,BLIND,39.0,7.0 12.0,166.0
47466,7.0,774164.0,5.1,39.0,high,low-high,12.0,rod_fixing,rod_fixing,1.0,153.0150000471622,1562778782012.0,1562778781858.0,BLIND,39.0,7.0 12.0,158.0
47467,7.0,774164.0,5.1,39.0,high,low-high,12.0,rod_fixing,rod_fixing,1.0,159.05999997630715,1562778782175.0,1562778782016.0,BLIND,39.0,7.0 12.0,163.0
47468,7.0,774164.0,5.1,39.0,high,low-high,12.0,rod_fixing,rod_fixing,1.0,156.5949999494478,1562778782336.0,1562778782179.0,BLIND,39.0,7.0 12.0,161.0
47469,7.0,774164.0,5.1,39.0,high,low-high,12.0,rod_fixing,rod_fixing,1.0,161.9549999013543,1562778782503.0,1562778782340.0,BLIND,39.0,7.0 12.0,166.0
47470,7.0,774164.0,5.1,39.0,high,low-high,12.0,rod_fixing,rod_fixing,1.0,153.92499999143186,1562778782661.0,1562778782506.0,BLIND,39.0,7.0 12.0,159.0
47471,7.0,774164.0,5.1,39.0,high,low-high,12.0,rod_fixing,rod_fixing,1.0,153.55499996803698,1562778782819.0,1562778782665.0,BLIND,39.0,7.0 12.0,170.0
47786,11.0,774164.0,0.1,39.0,high,low-high,12.0,rod_fixing,rod_fixing,1.0,163.7750000227243,1562778834243.0,1562778834078.0,BLIND,39.0,11.0 12.0,169.0
47787,11.0,774164.0,0.1,39.0,high,low-high,12.0,rod_fixing,rod_fixing,1.0,166.64499999023977,1562778834414.0,1562778834247.0,BLIND,39.0,11.0 12.0,172.0
47788,11.0,774164.0,0.1,39.0,high,low-high,12.0,rod_fixing,rod_fixing,1.0,156.1999999685213,1562778834575.0,1562778834419.0,BLIND,39.0,11.0 12.0,161.0
47789,11.0,774164.0,0.1,39.0,high,low-high,12.0,rod_fixing,rod_fixing,1.0,166.92999994847926,1562778834747.0,1562778834580.0,BLIND,39.0,11.0 12.0,171.0
47790,11.0,774164.0,0.1,39.0,high,low-high,12.0,rod_fixing,rod_fixing,1.0,161.94499994162467,1562778834913.0,1562778834751.0,BLIND,39.0,11.0 12.0,167.0
47791,11.0,774164.0,0.1,39.0,high,low-high,12.0,rod_fixing,rod_fixing,1.0,169.5949999848381,1562778835088.0,1562778834918.0,BLIND,39.0,11.0 12.0,174.0
47792,11.0,774164.0,0.1,39.0,high,low-high,12.0,rod_fixing,rod_fixing,1.0,159.18499999679625,1562778835252.0,1562778835092.0,BLIND,39.0,11.0 12.0,176.0
48194,4.0,774164.0,1.0,39.0,high,low-high,22.0,rod_fixing,rod_fixing,1.0,135.80000004731122,1562778928266.0,1562778928130.0,BLIND,39.0,4.0 22.0,141.0
48195,4.0,774164.0,1.0,39.0,high,low-high,22.0,rod_fixing,rod_fixing,1.0,149.36499996110797,1562778928421.0,1562778928271.0,BLIND,39.0,4.0 22.0,156.0
48196,4.0,774164.0,1.0,39.0,high,low-high,22.0,rod_fixing,rod_fixing,1.0,157.30000007897615,1562778928585.0,1562778928427.0,BLIND,39.0,4.0 22.0,163.0
48197,4.0,774164.0,1.0,39.0,high,low-high,22.0,rod_fixing,rod_fixing,1.0,160.69000004790726,1562778928751.0,1562778928590.0,BLIND,39.0,4.0 22.0,167.0
48198,4.0,774164.0,1.0,39.0,high,low-high,22.0,rod_fixing,rod_fixing,1.0,171.42999998759478,1562778928929.0,1562778928757.0,BLIND,39.0,4.0 22.0,177.0
48199,4.0,774164.0,1.0,39.0,high,low-high,22.0,rod_fixing,rod_fixing,1.0,160.7399999629706,1562778929095.0,1562778928934.0,BLIND,39.0,4.0 22.0,166.0
48200,4.0,774164.0,1.0,39.0,high,low-high,22.0,rod_fixing,rod_fixing,1.0,160.38499993737787,1562778929261.0,1562778929100.0,BLIND,39.0,4.0 22.0,182.0
48475,8.0,774164.0,5.1,39.0,high,low-high,22.0,rod_fixing,rod_fixing,1.0,159.84999993816018,1562778980802.0,1562778980641.0,BLIND,39.0,8.0 22.0,165.0
48476,8.0,774164.0,5.1,39.0,high,low-high,22.0,rod_fixing,rod_fixing,1.0,153.73499994166198,1562778980960.0,1562778980806.0,BLIND,39.0,8.0 22.0,158.0
48477,8.0,774164.0,5.1,39.0,high,low-high,22.0,rod_fixing,rod_fixing,1.0,159.32500001508743,1562778981123.0,1562778980964.0,BLIND,39.0,8.0 22.0,163.0
48478,8.0,774164.0,5.1,39.0,high,low-high,22.0,rod_fixing,rod_fixing,1.0,164.699999964796,1562778981292.0,1562778981127.0,BLIND,39.0,8.0 22.0,170.0
48479,8.0,774164.0,5.1,39.0,high,low-high,22.0,rod_fixing,rod_fixing,1.0,158.33999996539202,1562778981456.0,1562778981297.0,BLIND,39.0,8.0 22.0,164.0
48480,8.0,774164.0,5.1,39.0,high,low-high,22.0,rod_fixing,rod_fixing,1.0,133.89000005554408,1562778981595.0,1562778981461.0,BLIND,39.0,8.0 22.0,139.0
48481,8.0,774164.0,5.1,39.0,high,low-high,22.0,rod_fixing,rod_fixing,1.0,149.8099999735132,1562778981750.0,1562778981600.0,BLIND,39.0,8.0 22.0,170.0
48716,11.0,774164.0,0.1,39.0,high,low-high,22.0,rod_fixing,rod_fixing,1.0,138.61499994527549,1562779019653.0,1562779019514.0,BLIND,39.0,11.0 22.0,144.0
48717,11.0,774164.0,0.1,39.0,high,low-high,22.0,rod_fixing,rod_fixing,1.0,160.5650000274181,1562779019819.0,1562779019658.0,BLIND,39.0,11.0 22.0,166.0
48718,11.0,774164.0,0.1,39.0,high,low-high,22.0,rod_fixing,rod_fixing,1.0,166.2200000137091,1562779019991.0,1562779019824.0,BLIND,39.0,11.0 22.0,171.0
48719,11.0,774164.0,0.1,39.0,high,low-high,22.0,rod_fixing,rod_fixing,1.0,155.46999999787658,1562779020151.0,1562779019995.0,BLIND,39.0,11.0 22.0,161.0
48720,11.0,774164.0,0.1,39.0,high,low-high,22.0,rod_fixing,rod_fixing,1.0,187.4250000109896,1562779020344.0,1562779020156.0,BLIND,39.0,11.0 22.0,194.0
48721,11.0,774164.0,0.1,39.0,high,low-high,22.0,rod_fixing,rod_fixing,1.0,152.52000000327826,1562779020502.0,1562779020350.0,BLIND,39.0,11.0 22.0,158.0
48722,11.0,774164.0,0.1,39.0,high,low-high,22.0,rod_fixing,rod_fixing,1.0,173.79999998956922,1562779020682.0,1562779020508.0,BLIND,39.0,11.0 22.0,193.0
49064,3.0,774222.0,1.0,39.0,low,low-high,11.0,rod_fixing,rod_fixing,1.0,122.89500000770205,1562781451919.0,1562781451795.0,BLIND,39.0,3.0 11.0,126.0
49065,3.0,774222.0,1.0,39.0,low,low-high,11.0,rod_fixing,rod_fixing,1.0,140.9400000120513,1562781452063.0,1562781451921.0,BLIND,39.0,3.0 11.0,145.0
49066,3.0,774222.0,1.0,39.0,low,low-high,11.0,rod_fixing,rod_fixing,1.0,125.0700000091456,1562781452191.0,1562781452066.0,BLIND,39.0,3.0 11.0,128.0
49067,3.0,774222.0,1.0,39.0,low,low-high,11.0,rod_fixing,rod_fixing,1.0,133.36499998695214,1562781452327.0,1562781452194.0,BLIND,39.0,3.0 11.0,136.0
49068,3.0,774222.0,1.0,39.0,low,low-high,11.0,rod_fixing,rod_fixing,1.0,117.15999999432823,1562781452447.0,1562781452330.0,BLIND,39.0,3.0 11.0,121.0
49069,3.0,774222.0,1.0,39.0,low,low-high,11.0,rod_fixing,rod_fixing,1.0,100.06500000599772,1562781452552.0,1562781452451.0,BLIND,39.0,3.0 11.0,103.0
49070,3.0,774222.0,1.0,39.0,low,low-high,11.0,rod_fixing,rod_fixing,1.0,103.31500001484528,1562781452657.0,1562781452554.0,BLIND,39.0,3.0 11.0,113.0
49438,7.0,774222.0,2.5,39.0,low,low-high,11.0,rod_fixing,rod_fixing,1.0,116.6300000040792,1562781504522.0,1562781504405.0,BLIND,39.0,7.0 11.0,120.0
49439,7.0,774222.0,2.5,39.0,low,low-high,11.0,rod_fixing,rod_fixing,1.0,132.59999998263083,1562781504658.0,1562781504525.0,BLIND,39.0,7.0 11.0,136.0
49440,7.0,774222.0,2.5,39.0,low,low-high,11.0,rod_fixing,rod_fixing,1.0,124.9750000133645,1562781504786.0,1562781504661.0,BLIND,39.0,7.0 11.0,128.0
49441,7.0,774222.0,2.5,39.0,low,low-high,11.0,rod_fixing,rod_fixing,1.0,124.90000002435407,1562781504914.0,1562781504789.0,BLIND,39.0,7.0 11.0,128.0
49442,7.0,774222.0,2.5,39.0,low,low-high,11.0,rod_fixing,rod_fixing,1.0,125.04000001354143,1562781505043.0,1562781504917.0,BLIND,39.0,7.0 11.0,129.0
49443,7.0,774222.0,2.5,39.0,low,low-high,11.0,rod_fixing,rod_fixing,1.0,140.77500000712465,1562781505187.0,1562781505046.0,BLIND,39.0,7.0 11.0,143.0
49444,7.0,774222.0,2.5,39.0,low,low-high,11.0,rod_fixing,rod_fixing,1.0,125.93499998911284,1562781505315.0,1562781505189.0,BLIND,39.0,7.0 11.0,139.0
49811,11.0,774222.0,0.1,39.0,low,low-high,11.0,rod_fixing,rod_fixing,1.0,116.24999999185093,1562781556634.0,1562781556518.0,BLIND,39.0,11.0 11.0,120.0
49812,11.0,774222.0,0.1,39.0,low,low-high,11.0,rod_fixing,rod_fixing,1.0,148.64999998826534,1562781556787.0,1562781556638.0,BLIND,39.0,11.0 11.0,151.0
49813,11.0,774222.0,0.1,39.0,low,low-high,11.0,rod_fixing,rod_fixing,1.0,141.36999999755062,1562781556931.0,1562781556789.0,BLIND,39.0,11.0 11.0,146.0
49814,11.0,774222.0,0.1,39.0,low,low-high,11.0,rod_fixing,rod_fixing,1.0,156.0049999970943,1562781557091.0,1562781556935.0,BLIND,39.0,11.0 11.0,159.0
49815,11.0,774222.0,0.1,39.0,low,low-high,11.0,rod_fixing,rod_fixing,1.0,140.61999999103136,1562781557236.0,1562781557094.0,BLIND,39.0,11.0 11.0,145.0
49816,11.0,774222.0,0.1,39.0,low,low-high,11.0,rod_fixing,rod_fixing,1.0,148.3249999873806,1562781557388.0,1562781557239.0,BLIND,39.0,11.0 11.0,304.0
50244,4.0,774222.0,2.5,39.0,low,low-high,21.0,rod_fixing,rod_fixing,1.0,139.5399999746587,1562781659411.0,1562781659271.0,BLIND,39.0,4.0 21.0,144.0
50245,4.0,774222.0,2.5,39.0,low,low-high,21.0,rod_fixing,rod_fixing,1.0,131.8850000097882,1562781659547.0,1562781659415.0,BLIND,39.0,4.0 21.0,136.0
50246,4.0,774222.0,2.5,39.0,low,low-high,21.0,rod_fixing,rod_fixing,1.0,131.9599999987986,1562781659684.0,1562781659551.0,BLIND,39.0,4.0 21.0,136.0
50247,4.0,774222.0,2.5,39.0,low,low-high,21.0,rod_fixing,rod_fixing,1.0,123.48000000929459,1562781659812.0,1562781659687.0,BLIND,39.0,4.0 21.0,129.0
50248,4.0,774222.0,2.5,39.0,low,low-high,21.0,rod_fixing,rod_fixing,1.0,123.99000002187677,1562781659940.0,1562781659816.0,BLIND,39.0,4.0 21.0,128.0
50249,4.0,774222.0,2.5,39.0,low,low-high,21.0,rod_fixing,rod_fixing,1.0,131.71499999589287,1562781660076.0,1562781659944.0,BLIND,39.0,4.0 21.0,136.0
50250,4.0,774222.0,2.5,39.0,low,low-high,21.0,rod_fixing,rod_fixing,1.0,164.22499998589046,1562781660245.0,1562781660080.0,BLIND,39.0,4.0 21.0,180.0
50581,8.0,774222.0,0.4,39.0,low,low-high,21.0,rod_fixing,rod_fixing,1.0,147.8449999995064,1562781711725.0,1562781711577.0,BLIND,39.0,8.0 21.0,152.0
50582,8.0,774222.0,0.4,39.0,low,low-high,21.0,rod_fixing,rod_fixing,1.0,147.99500000663105,1562781711877.0,1562781711729.0,BLIND,39.0,8.0 21.0,153.0
50583,8.0,774222.0,0.4,39.0,low,low-high,21.0,rod_fixing,rod_fixing,1.0,131.1850000056438,1562781712013.0,1562781711882.0,BLIND,39.0,8.0 21.0,136.0
50584,8.0,774222.0,0.4,39.0,low,low-high,21.0,rod_fixing,rod_fixing,1.0,147.0299999928102,1562781712165.0,1562781712018.0,BLIND,39.0,8.0 21.0,152.0
50585,8.0,774222.0,0.4,39.0,low,low-high,21.0,rod_fixing,rod_fixing,1.0,139.25000000745058,1562781712310.0,1562781712170.0,BLIND,39.0,8.0 21.0,144.0
50586,8.0,774222.0,0.4,39.0,low,low-high,21.0,rod_fixing,rod_fixing,1.0,139.3849999876693,1562781712454.0,1562781712314.0,BLIND,39.0,8.0 21.0,145.0
50587,8.0,774222.0,0.4,39.0,low,low-high,21.0,rod_fixing,rod_fixing,1.0,139.95499999145977,1562781712599.0,1562781712459.0,BLIND,39.0,8.0 21.0,157.0
50836,11.0,774222.0,5.1,39.0,low,low-high,21.0,rod_fixing,rod_fixing,1.0,115.075000008801,1562781751254.0,1562781751139.0,BLIND,39.0,11.0 21.0,118.0
50837,11.0,774222.0,5.1,39.0,low,low-high,21.0,rod_fixing,rod_fixing,1.0,124.90999998408371,1562781751382.0,1562781751257.0,BLIND,39.0,11.0 21.0,130.0
50838,11.0,774222.0,5.1,39.0,low,low-high,21.0,rod_fixing,rod_fixing,1.0,131.26000002375804,1562781751519.0,1562781751387.0,BLIND,39.0,11.0 21.0,136.0
50839,11.0,774222.0,5.1,39.0,low,low-high,21.0,rod_fixing,rod_fixing,1.0,147.5499999942258,1562781751671.0,1562781751523.0,BLIND,39.0,11.0 21.0,153.0
50840,11.0,774222.0,5.1,39.0,low,low-high,21.0,rod_fixing,rod_fixing,1.0,139.02500001131557,1562781751815.0,1562781751676.0,BLIND,39.0,11.0 21.0,144.0
50841,11.0,774222.0,5.1,39.0,low,low-high,21.0,rod_fixing,rod_fixing,1.0,155.44999999110587,1562781751976.0,1562781751820.0,BLIND,39.0,11.0 21.0,160.0
50842,11.0,774222.0,5.1,39.0,low,low-high,21.0,rod_fixing,rod_fixing,1.0,155.44000000227243,1562781752136.0,1562781751980.0,BLIND,39.0,11.0 21.0,173.0
51186,3.0,774222.0,1.0,39.0,high,low-high,12.0,rod_fixing,rod_fixing,1.0,129.255000007106,1562782713316.0,1562782713186.0,BLIND,39.0,3.0 12.0,134.0
51187,3.0,774222.0,1.0,39.0,high,low-high,12.0,rod_fixing,rod_fixing,1.0,83.40000000316651,1562782713404.0,1562782713320.0,BLIND,39.0,3.0 12.0,88.0
51188,3.0,774222.0,1.0,39.0,high,low-high,12.0,rod_fixing,rod_fixing,1.0,100.12499999720605,1562782713508.0,1562782713408.0,BLIND,39.0,3.0 12.0,104.0
51189,3.0,774222.0,1.0,39.0,high,low-high,12.0,rod_fixing,rod_fixing,1.0,115.58499999227934,1562782713628.0,1562782713512.0,BLIND,39.0,3.0 12.0,120.0
51190,3.0,774222.0,1.0,39.0,high,low-high,12.0,rod_fixing,rod_fixing,1.0,99.74000000511295,1562782713732.0,1562782713632.0,BLIND,39.0,3.0 12.0,104.0
51191,3.0,774222.0,1.0,39.0,high,low-high,12.0,rod_fixing,rod_fixing,1.0,107.96500000287779,1562782713845.0,1562782713736.0,BLIND,39.0,3.0 12.0,113.0
51192,3.0,774222.0,1.0,39.0,high,low-high,12.0,rod_fixing,rod_fixing,1.0,114.97500000405122,1562782713965.0,1562782713849.0,BLIND,39.0,3.0 12.0,136.0
51529,7.0,774222.0,2.5,39.0,high,low-high,12.0,rod_fixing,rod_fixing,1.0,138.39500001631674,1562782765430.0,1562782765291.0,BLIND,39.0,7.0 12.0,144.0
51530,7.0,774222.0,2.5,39.0,high,low-high,12.0,rod_fixing,rod_fixing,1.0,138.67000001482666,1562782765574.0,1562782765435.0,BLIND,39.0,7.0 12.0,145.0
51531,7.0,774222.0,2.5,39.0,high,low-high,12.0,rod_fixing,rod_fixing,1.0,147.11499999975788,1562782765727.0,1562782765580.0,BLIND,39.0,7.0 12.0,152.0
51532,7.0,774222.0,2.5,39.0,high,low-high,12.0,rod_fixing,rod_fixing,1.0,146.13500001723878,1562782765879.0,1562782765732.0,BLIND,39.0,7.0 12.0,151.0
51533,7.0,774222.0,2.5,39.0,high,low-high,12.0,rod_fixing,rod_fixing,1.0,163.5649999952875,1562782766047.0,1562782765883.0,BLIND,39.0,7.0 12.0,169.0
51534,7.0,774222.0,2.5,39.0,high,low-high,12.0,rod_fixing,rod_fixing,1.0,155.48499999567866,1562782766208.0,1562782766052.0,BLIND,39.0,7.0 12.0,161.0
51535,7.0,774222.0,2.5,39.0,high,low-high,12.0,rod_fixing,rod_fixing,1.0,162.76000000652857,1562782766376.0,1562782766213.0,BLIND,39.0,7.0 12.0,184.0
51898,11.0,774222.0,0.1,39.0,high,low-high,12.0,rod_fixing,rod_fixing,1.0,145.87499998742715,1562782817712.0,1562782817566.0,BLIND,39.0,11.0 12.0,152.0
51899,11.0,774222.0,0.1,39.0,high,low-high,12.0,rod_fixing,rod_fixing,1.0,146.20499999728054,1562782817864.0,1562782817718.0,BLIND,39.0,11.0 12.0,152.0
51900,11.0,774222.0,0.1,39.0,high,low-high,12.0,rod_fixing,rod_fixing,1.0,153.98499998264015,1562782818024.0,1562782817870.0,BLIND,39.0,11.0 12.0,160.0
51901,11.0,774222.0,0.1,39.0,high,low-high,12.0,rod_fixing,rod_fixing,1.0,145.96499997423962,1562782818177.0,1562782818030.0,BLIND,39.0,11.0 12.0,152.0
51902,11.0,774222.0,0.1,39.0,high,low-high,12.0,rod_fixing,rod_fixing,1.0,138.0899999930989,1562782818321.0,1562782818182.0,BLIND,39.0,11.0 12.0,145.0
51903,11.0,774222.0,0.1,39.0,high,low-high,12.0,rod_fixing,rod_fixing,1.0,138.28499999362975,1562782818465.0,1562782818327.0,BLIND,39.0,11.0 12.0,144.0
51904,11.0,774222.0,0.1,39.0,high,low-high,12.0,rod_fixing,rod_fixing,1.0,138.00499998615123,1562782818609.0,1562782818471.0,BLIND,39.0,11.0 12.0,162.0
52282,4.0,774222.0,2.5,39.0,high,low-high,22.0,rod_fixing,rod_fixing,1.0,185.05499997991137,1562782923003.0,1562782922818.0,BLIND,39.0,4.0 22.0,191.0
52283,4.0,774222.0,2.5,39.0,high,low-high,22.0,rod_fixing,rod_fixing,1.0,161.7400000104681,1562782923172.0,1562782923009.0,BLIND,39.0,4.0 22.0,166.0
52284,4.0,774222.0,2.5,39.0,high,low-high,22.0,rod_fixing,rod_fixing,1.0,147.9000000108499,1562782923324.0,1562782923175.0,BLIND,39.0,4.0 22.0,154.0
52285,4.0,774222.0,2.5,39.0,high,low-high,22.0,rod_fixing,rod_fixing,1.0,146.71500000986268,1562782923476.0,1562782923329.0,BLIND,39.0,4.0 22.0,153.0
52286,4.0,774222.0,2.5,39.0,high,low-high,22.0,rod_fixing,rod_fixing,1.0,145.26499999919906,1562782923628.0,1562782923482.0,BLIND,39.0,4.0 22.0,152.0
52287,4.0,774222.0,2.5,39.0,high,low-high,22.0,rod_fixing,rod_fixing,1.0,169.77000000770204,1562782923804.0,1562782923634.0,BLIND,39.0,4.0 22.0,177.0
52288,4.0,774222.0,2.5,39.0,high,low-high,22.0,rod_fixing,rod_fixing,1.0,169.83999998774382,1562782923981.0,1562782923811.0,BLIND,39.0,4.0 22.0,196.0
52576,8.0,774222.0,0.4,39.0,high,low-high,22.0,rod_fixing,rod_fixing,1.0,124.79999999050051,1562782975477.0,1562782975352.0,BLIND,39.0,8.0 22.0,157.0
52577,8.0,774222.0,0.4,39.0,high,low-high,22.0,rod_fixing,rod_fixing,1.0,96.03999997489154,1562782975606.0,1562782975509.0,BLIND,39.0,8.0 22.0,104.0
52578,8.0,774222.0,0.4,39.0,high,low-high,22.0,rod_fixing,rod_fixing,1.0,128.44500000937842,1562782975742.0,1562782975613.0,BLIND,39.0,8.0 22.0,134.0
52579,8.0,774222.0,0.4,39.0,high,low-high,22.0,rod_fixing,rod_fixing,1.0,115.09500001557173,1562782975862.0,1562782975747.0,BLIND,39.0,8.0 22.0,122.0
52580,8.0,774222.0,0.4,39.0,high,low-high,22.0,rod_fixing,rod_fixing,1.0,105.20499999984169,1562782975974.0,1562782975869.0,BLIND,39.0,8.0 22.0,112.0
52581,8.0,774222.0,0.4,39.0,high,low-high,22.0,rod_fixing,rod_fixing,1.0,89.3099999811966,1562782976070.0,1562782975981.0,BLIND,39.0,8.0 22.0,96.0
52582,8.0,774222.0,0.4,39.0,high,low-high,22.0,rod_fixing,rod_fixing,1.0,249.7399999992922,1562782976327.0,1562782976077.0,BLIND,39.0,8.0 22.0,279.0
52838,11.0,774222.0,5.1,39.0,high,low-high,22.0,rod_fixing,rod_fixing,1.0,139.36000000103377,1562783014478.0,1562783014339.0,BLIND,39.0,11.0 22.0,146.0
52839,11.0,774222.0,5.1,39.0,high,low-high,22.0,rod_fixing,rod_fixing,1.0,128.97999997949228,1562783014614.0,1562783014485.0,BLIND,39.0,11.0 22.0,136.0
52840,11.0,774222.0,5.1,39.0,high,low-high,22.0,rod_fixing,rod_fixing,1.0,121.03000000934117,1562783014743.0,1562783014621.0,BLIND,39.0,11.0 22.0,129.0
52841,11.0,774222.0,5.1,39.0,high,low-high,22.0,rod_fixing,rod_fixing,1.0,120.9099999978207,1562783014871.0,1562783014750.0,BLIND,39.0,11.0 22.0,128.0
52842,11.0,774222.0,5.1,39.0,high,low-high,22.0,rod_fixing,rod_fixing,1.0,96.57500000321306,1562783014975.0,1562783014878.0,BLIND,39.0,11.0 22.0,104.0
52843,11.0,774222.0,5.1,39.0,high,low-high,22.0,rod_fixing,rod_fixing,1.0,112.98500001430513,1562783015095.0,1562783014982.0,BLIND,39.0,11.0 22.0,120.0
52844,11.0,774222.0,5.1,39.0,high,low-high,22.0,rod_fixing,rod_fixing,1.0,96.98500001104547,1562783015200.0,1562783015102.0,BLIND,39.0,11.0 22.0,126.0
7007,3.0,774240.0,1.0,39.0,high,high-low,11.0,rod_fixing,rod_fixing,1.0,607.6200000006793,1562782917069.0,1562782916460.0,BLIND,39.0,3.0 11.0,614.0
7008,3.0,774240.0,1.0,39.0,high,high-low,11.0,rod_fixing,rod_fixing,1.0,454.47999999851163,1562782917529.0,1562782917074.0,BLIND,39.0,3.0 11.0,459.0
7009,3.0,774240.0,1.0,39.0,high,high-low,11.0,rod_fixing,rod_fixing,1.0,118.61500000122759,1562782917653.0,1562782917533.0,BLIND,39.0,3.0 11.0,123.0
7010,3.0,774240.0,1.0,39.0,high,high-low,11.0,rod_fixing,rod_fixing,1.0,160.68499999892083,1562782917817.0,1562782917656.0,BLIND,39.0,3.0 11.0,165.0
7011,3.0,774240.0,1.0,39.0,high,high-low,11.0,rod_fixing,rod_fixing,1.0,154.64000000065425,1562782917977.0,1562782917821.0,BLIND,39.0,3.0 11.0,160.0
7012,3.0,774240.0,1.0,39.0,high,high-low,11.0,rod_fixing,rod_fixing,1.0,155.12500000113502,1562782918137.0,1562782917981.0,BLIND,39.0,3.0 11.0,160.0
7013,3.0,774240.0,1.0,39.0,high,high-low,11.0,rod_fixing,rod_fixing,1.0,162.8950000012992,1562782918305.0,1562782918141.0,BLIND,39.0,3.0 11.0,183.0
7326,7.0,774240.0,2.5,39.0,high,high-low,11.0,rod_fixing,rod_fixing,1.0,123.70499999997264,1562782968906.0,1562782968781.0,BLIND,39.0,7.0 11.0,128.0
7327,7.0,774240.0,2.5,39.0,high,high-low,11.0,rod_fixing,rod_fixing,1.0,136.51500000014494,1562782969047.0,1562782968909.0,BLIND,39.0,7.0 11.0,141.0
7328,7.0,774240.0,2.5,39.0,high,high-low,11.0,rod_fixing,rod_fixing,1.0,127.11500000114029,1562782969178.0,1562782969050.0,BLIND,39.0,7.0 11.0,131.0
7329,7.0,774240.0,2.5,39.0,high,high-low,11.0,rod_fixing,rod_fixing,1.0,140.15499999914027,1562782969322.0,1562782969181.0,BLIND,39.0,7.0 11.0,144.0
7330,7.0,774240.0,2.5,39.0,high,high-low,11.0,rod_fixing,rod_fixing,1.0,156.10000000015134,1562782969482.0,1562782969325.0,BLIND,39.0,7.0 11.0,162.0
7331,7.0,774240.0,2.5,39.0,high,high-low,11.0,rod_fixing,rod_fixing,1.0,154.37999999994645,1562782969642.0,1562782969487.0,BLIND,39.0,7.0 11.0,160.0
7332,7.0,774240.0,2.5,39.0,high,high-low,11.0,rod_fixing,rod_fixing,1.0,146.2799999990239,1562782969794.0,1562782969647.0,BLIND,39.0,7.0 11.0,164.0
7646,11.0,774240.0,0.4,39.0,high,high-low,11.0,rod_fixing,rod_fixing,1.0,105.39500000048427,1562783020874.0,1562783020768.0,BLIND,39.0,11.0 11.0,110.0
7647,11.0,774240.0,0.4,39.0,high,high-low,11.0,rod_fixing,rod_fixing,1.0,155.38999999989755,1562783021034.0,1562783020878.0,BLIND,39.0,11.0 11.0,160.0
7648,11.0,774240.0,0.4,39.0,high,high-low,11.0,rod_fixing,rod_fixing,1.0,147.21000000098138,1562783021186.0,1562783021038.0,BLIND,39.0,11.0 11.0,152.0
7649,11.0,774240.0,0.4,39.0,high,high-low,11.0,rod_fixing,rod_fixing,1.0,148.48999999958323,1562783021339.0,1562783021190.0,BLIND,39.0,11.0 11.0,155.0
7650,11.0,774240.0,0.4,39.0,high,high-low,11.0,rod_fixing,rod_fixing,1.0,160.0500000003958,1562783021506.0,1562783021345.0,BLIND,39.0,11.0 11.0,167.0
7651,11.0,774240.0,0.4,39.0,high,high-low,11.0,rod_fixing,rod_fixing,1.0,153.54999999905704,1562783021666.0,1562783021512.0,BLIND,39.0,11.0 11.0,340.0
8052,4.0,774240.0,1.0,39.0,high,high-low,21.0,rod_fixing,rod_fixing,1.0,159.20999999978812,1562783095077.0,1562783094917.0,BLIND,39.0,4.0 21.0,166.0
8053,4.0,774240.0,1.0,39.0,high,high-low,21.0,rod_fixing,rod_fixing,1.0,161.1099999990838,1562783095245.0,1562783095083.0,BLIND,39.0,4.0 21.0,169.0
8054,4.0,774240.0,1.0,39.0,high,high-low,21.0,rod_fixing,rod_fixing,1.0,145.34499999898253,1562783095398.0,1562783095252.0,BLIND,39.0,4.0 21.0,152.0
8055,4.0,774240.0,1.0,39.0,high,high-low,21.0,rod_fixing,rod_fixing,1.0,152.24499999932596,1562783095557.0,1562783095404.0,BLIND,39.0,4.0 21.0,159.0
8056,4.0,774240.0,1.0,39.0,high,high-low,21.0,rod_fixing,rod_fixing,1.0,160.87499999956344,1562783095725.0,1562783095563.0,BLIND,39.0,4.0 21.0,169.0
8057,4.0,774240.0,1.0,39.0,high,high-low,21.0,rod_fixing,rod_fixing,1.0,168.37999999916065,1562783095901.0,1562783095732.0,BLIND,39.0,4.0 21.0,175.0
8058,4.0,774240.0,1.0,39.0,high,high-low,21.0,rod_fixing,rod_fixing,1.0,153.20000000065193,1562783096061.0,1562783095907.0,BLIND,39.0,4.0 21.0,178.0
8342,8.0,774240.0,5.1,39.0,high,high-low,21.0,rod_fixing,rod_fixing,1.0,163.49000000086383,1562783147134.0,1562783146969.0,BLIND,39.0,8.0 21.0,171.0
8343,8.0,774240.0,5.1,39.0,high,high-low,21.0,rod_fixing,rod_fixing,1.0,160.54500000062401,1562783147301.0,1562783147140.0,BLIND,39.0,8.0 21.0,168.0
8344,8.0,774240.0,5.1,39.0,high,high-low,21.0,rod_fixing,rod_fixing,1.0,152.5899999996764,1562783147461.0,1562783147308.0,BLIND,39.0,8.0 21.0,160.0
8345,8.0,774240.0,5.1,39.0,high,high-low,21.0,rod_fixing,rod_fixing,1.0,168.47500000038417,1562783147638.0,1562783147468.0,BLIND,39.0,8.0 21.0,176.0
8346,8.0,774240.0,5.1,39.0,high,high-low,21.0,rod_fixing,rod_fixing,1.0,160.23499999934575,1562783147805.0,1562783147644.0,BLIND,39.0,8.0 21.0,168.0
8347,8.0,774240.0,5.1,39.0,high,high-low,21.0,rod_fixing,rod_fixing,1.0,168.2049999999581,1562783147981.0,1562783147812.0,BLIND,39.0,8.0 21.0,176.0
8348,8.0,774240.0,5.1,39.0,high,high-low,21.0,rod_fixing,rod_fixing,1.0,176.6100000004517,1562783148165.0,1562783147988.0,BLIND,39.0,8.0 21.0,201.0
8568,11.0,774240.0,0.4,39.0,high,high-low,21.0,rod_fixing,rod_fixing,1.0,159.47000000055414,1562783186257.0,1562783186097.0,BLIND,39.0,11.0 21.0,165.0
8569,11.0,774240.0,0.4,39.0,high,high-low,21.0,rod_fixing,rod_fixing,1.0,153.96500000130618,1562783186417.0,1562783186262.0,BLIND,39.0,11.0 21.0,162.0
8570,11.0,774240.0,0.4,39.0,high,high-low,21.0,rod_fixing,rod_fixing,1.0,152.47500000079162,1562783186577.0,1562783186424.0,BLIND,39.0,11.0 21.0,160.0
8571,11.0,774240.0,0.4,39.0,high,high-low,21.0,rod_fixing,rod_fixing,1.0,159.98000000038886,1562783186745.0,1562783186584.0,BLIND,39.0,11.0 21.0,167.0
8572,11.0,774240.0,0.4,39.0,high,high-low,21.0,rod_fixing,rod_fixing,1.0,169.53000000107568,1562783186921.0,1562783186751.0,BLIND,39.0,11.0 21.0,178.0
8573,11.0,774240.0,0.4,39.0,high,high-low,21.0,rod_fixing,rod_fixing,1.0,167.37500000093132,1562783187097.0,1562783186929.0,BLIND,39.0,11.0 21.0,175.0
8574,11.0,774240.0,0.4,39.0,high,high-low,21.0,rod_fixing,rod_fixing,1.0,167.81000000081258,1562783187273.0,1562783187104.0,BLIND,39.0,11.0 21.0,195.0
8882,3.0,774240.0,1.0,39.0,low,high-low,12.0,rod_fixing,rod_fixing,1.0,197.42000000039118,1562783277653.0,1562783277455.0,BLIND,39.0,3.0 12.0,206.0
8883,3.0,774240.0,1.0,39.0,low,high-low,12.0,rod_fixing,rod_fixing,1.0,151.37999999930616,1562783277813.0,1562783277661.0,BLIND,39.0,3.0 12.0,160.0
8884,3.0,774240.0,1.0,39.0,low,high-low,12.0,rod_fixing,rod_fixing,1.0,151.51499999960654,1562783277973.0,1562783277821.0,BLIND,39.0,3.0 12.0,160.0
8885,3.0,774240.0,1.0,39.0,low,high-low,12.0,rod_fixing,rod_fixing,1.0,167.85999999952037,1562783278149.0,1562783277981.0,BLIND,39.0,3.0 12.0,176.0
8886,3.0,774240.0,1.0,39.0,low,high-low,12.0,rod_fixing,rod_fixing,1.0,167.52000000083353,1562783278325.0,1562783278157.0,BLIND,39.0,3.0 12.0,176.0
8887,3.0,774240.0,1.0,39.0,low,high-low,12.0,rod_fixing,rod_fixing,1.0,167.48000000009782,1562783278501.0,1562783278333.0,BLIND,39.0,3.0 12.0,176.0
8888,3.0,774240.0,1.0,39.0,low,high-low,12.0,rod_fixing,rod_fixing,1.0,151.49999999994182,1562783278661.0,1562783278509.0,BLIND,39.0,3.0 12.0,183.0
9175,7.0,774240.0,2.5,39.0,low,high-low,12.0,rod_fixing,rod_fixing,1.0,158.16500000073574,1562783329886.0,1562783329727.0,BLIND,39.0,7.0 12.0,167.0
9176,7.0,774240.0,2.5,39.0,low,high-low,12.0,rod_fixing,rod_fixing,1.0,142.61499999882653,1562783330038.0,1562783329894.0,BLIND,39.0,7.0 12.0,152.0
9177,7.0,774240.0,2.5,39.0,low,high-low,12.0,rod_fixing,rod_fixing,1.0,151.10000000096625,1562783330198.0,1562783330046.0,BLIND,39.0,7.0 12.0,160.0
9178,7.0,774240.0,2.5,39.0,low,high-low,12.0,rod_fixing,rod_fixing,1.0,155.23500000021886,1562783330362.0,1562783330206.0,BLIND,39.0,7.0 12.0,697.0
9471,11.0,774240.0,0.4,39.0,low,high-low,12.0,rod_fixing,rod_fixing,1.0,668.9999999998837,1562783381818.0,1562783381148.0,BLIND,39.0,11.0 12.0,677.0
9472,11.0,774240.0,0.4,39.0,low,high-low,12.0,rod_fixing,rod_fixing,1.0,159.8599999997532,1562783381986.0,1562783381825.0,BLIND,39.0,11.0 12.0,168.0
9473,11.0,774240.0,0.4,39.0,low,high-low,12.0,rod_fixing,rod_fixing,1.0,151.5100000014063,1562783382145.0,1562783381993.0,BLIND,39.0,11.0 12.0,160.0
9474,11.0,774240.0,0.4,39.0,low,high-low,12.0,rod_fixing,rod_fixing,1.0,159.80500000121538,1562783382314.0,1562783382153.0,BLIND,39.0,11.0 12.0,168.0
9475,11.0,774240.0,0.4,39.0,low,high-low,12.0,rod_fixing,rod_fixing,1.0,152.16499999945518,1562783382473.0,1562783382321.0,BLIND,39.0,11.0 12.0,159.0
9476,11.0,774240.0,0.4,39.0,low,high-low,12.0,rod_fixing,rod_fixing,1.0,136.34499999892432,1562783382617.0,1562783382480.0,BLIND,39.0,11.0 12.0,145.0
9477,11.0,774240.0,0.4,39.0,low,high-low,12.0,rod_fixing,rod_fixing,1.0,167.93499999947383,1562783382793.0,1562783382625.0,BLIND,39.0,11.0 12.0,176.0
9478,11.0,774240.0,0.4,39.0,low,high-low,12.0,rod_fixing,rod_fixing,1.0,144.1749999994645,1562783382945.0,1562783382801.0,BLIND,39.0,11.0 12.0,177.0
9854,4.0,774240.0,1.0,39.0,low,high-low,22.0,rod_fixing,rod_fixing,1.0,141.00000000139696,1562783459349.0,1562783459207.0,BLIND,39.0,4.0 22.0,152.0
9855,4.0,774240.0,1.0,39.0,low,high-low,22.0,rod_fixing,rod_fixing,1.0,149.42500000144355,1562783459509.0,1562783459359.0,BLIND,39.0,4.0 22.0,160.0
9856,4.0,774240.0,1.0,39.0,low,high-low,22.0,rod_fixing,rod_fixing,1.0,150.40000000037253,1562783459670.0,1562783459519.0,BLIND,39.0,4.0 22.0,161.0
9857,4.0,774240.0,1.0,39.0,low,high-low,22.0,rod_fixing,rod_fixing,1.0,157.13499999942724,1562783459837.0,1562783459680.0,BLIND,39.0,4.0 22.0,167.0
9858,4.0,774240.0,1.0,39.0,low,high-low,22.0,rod_fixing,rod_fixing,1.0,149.59499999892432,1562783459997.0,1562783459847.0,BLIND,39.0,4.0 22.0,162.0
9859,4.0,774240.0,1.0,39.0,low,high-low,22.0,rod_fixing,rod_fixing,1.0,155.54499999957625,1562783460165.0,1562783460009.0,BLIND,39.0,4.0 22.0,166.0
9860,4.0,774240.0,1.0,39.0,low,high-low,22.0,rod_fixing,rod_fixing,1.0,157.64499999932013,1562783460333.0,1562783460175.0,BLIND,39.0,4.0 22.0,197.0
10142,8.0,774240.0,5.1,39.0,low,high-low,22.0,rod_fixing,rod_fixing,1.0,148.82500000018626,1562783511537.0,1562783511388.0,BLIND,39.0,8.0 22.0,160.0
10143,8.0,774240.0,5.1,39.0,low,high-low,22.0,rod_fixing,rod_fixing,1.0,161.23999999940858,1562783511709.0,1562783511548.0,BLIND,39.0,8.0 22.0,172.0
10144,8.0,774240.0,5.1,39.0,low,high-low,22.0,rod_fixing,rod_fixing,1.0,148.99499999952968,1562783511869.0,1562783511720.0,BLIND,39.0,8.0 22.0,159.0
10145,8.0,774240.0,5.1,39.0,low,high-low,22.0,rod_fixing,rod_fixing,1.0,165.28499999910127,1562783512045.0,1562783511879.0,BLIND,39.0,8.0 22.0,176.0
10146,8.0,774240.0,5.1,39.0,low,high-low,22.0,rod_fixing,rod_fixing,1.0,173.34499999927357,1562783512229.0,1562783512055.0,BLIND,39.0,8.0 22.0,185.0
10147,8.0,774240.0,5.1,39.0,low,high-low,22.0,rod_fixing,rod_fixing,1.0,152.82499999925494,1562783512393.0,1562783512240.0,BLIND,39.0,8.0 22.0,164.0
10148,8.0,774240.0,5.1,39.0,low,high-low,22.0,rod_fixing,rod_fixing,1.0,176.86499999952503,1562783512581.0,1562783512404.0,BLIND,39.0,8.0 22.0,218.0
10365,11.0,774240.0,0.4,39.0,low,high-low,22.0,rod_fixing,rod_fixing,1.0,155.84000000124797,1562783551049.0,1562783550892.0,BLIND,39.0,11.0 22.0,168.0
10366,11.0,774240.0,0.4,39.0,low,high-low,22.0,rod_fixing,rod_fixing,1.0,156.50499999895692,1562783551217.0,1562783551060.0,BLIND,39.0,11.0 22.0,168.0
10367,11.0,774240.0,0.4,39.0,low,high-low,22.0,rod_fixing,rod_fixing,1.0,156.4749999997439,1562783551385.0,1562783551228.0,BLIND,39.0,11.0 22.0,168.0
10368,11.0,774240.0,0.4,39.0,low,high-low,22.0,rod_fixing,rod_fixing,1.0,172.48499999917115,1562783551569.0,1562783551396.0,BLIND,39.0,11.0 22.0,184.0
10369,11.0,774240.0,0.4,39.0,low,high-low,22.0,rod_fixing,rod_fixing,1.0,156.2400000003399,1562783551737.0,1562783551580.0,BLIND,39.0,11.0 22.0,169.0
10370,11.0,774240.0,0.4,39.0,low,high-low,22.0,rod_fixing,rod_fixing,1.0,170.9100000007311,1562783551921.0,1562783551749.0,BLIND,39.0,11.0 22.0,183.0
10371,11.0,774240.0,0.4,39.0,low,high-low,22.0,rod_fixing,rod_fixing,1.0,164.6799999998184,1562783552097.0,1562783551932.0,BLIND,39.0,11.0 22.0,197.0
7322,7.0,774240.0,2.5,,high,high-low,11.0,rod_fixing,rod_fixing,1.0,,,,BLIND,,7.0 11.0,
7323,7.0,774240.0,2.5,,high,high-low,11.0,rod_fixing,rod_fixing,1.0,,,,BLIND,,7.0 11.0,
7324,7.0,774240.0,2.5,,high,high-low,11.0,rod_fixing,rod_fixing,1.0,,,,BLIND,,7.0 11.0,
9468,11.0,774240.0,0.4,,low,high-low,12.0,rod_fixing,rod_fixing,1.0,,,,BLIND,,11.0 12.0,
9469,11.0,774240.0,0.4,,low,high-low,12.0,rod_fixing,rod_fixing,1.0,,,,BLIND,,11.0 12.0,
9470,11.0,774240.0,0.4,,low,high-low,12.0,rod_fixing,rod_fixing,1.0,,,,BLIND,,11.0 12.0,
10718,3.0,774245.0,1.0,39.0,high,high-low,11.0,rod_fixing,rod_fixing,1.0,124.17500000447036,1562782966470.0,1562782966345.0,BLIND,39.0,3.0 11.0,129.0
10719,3.0,774245.0,1.0,39.0,high,high-low,11.0,rod_fixing,rod_fixing,1.0,115.56000000564379,1562782966590.0,1562782966474.0,BLIND,39.0,3.0 11.0,118.0
10720,3.0,774245.0,1.0,39.0,high,high-low,11.0,rod_fixing,rod_fixing,1.0,105.27500000898728,1562782966698.0,1562782966592.0,BLIND,39.0,3.0 11.0,108.0
10721,3.0,774245.0,1.0,39.0,high,high-low,11.0,rod_fixing,rod_fixing,1.0,118.80500000552273,1562782966820.0,1562782966700.0,BLIND,39.0,3.0 11.0,122.0
10722,3.0,774245.0,1.0,39.0,high,high-low,11.0,rod_fixing,rod_fixing,1.0,116.99999999837021,1562782966940.0,1562782966822.0,BLIND,39.0,3.0 11.0,120.0
11092,7.0,774245.0,0.4,39.0,high,high-low,11.0,rod_fixing,rod_fixing,1.0,122.68000000040048,1562783018918.0,1562783018795.0,BLIND,39.0,7.0 11.0,127.0
11093,7.0,774245.0,0.4,39.0,high,high-low,11.0,rod_fixing,rod_fixing,1.0,122.84500000532715,1562783019046.0,1562783018922.0,BLIND,39.0,7.0 11.0,129.0
11094,7.0,774245.0,0.4,39.0,high,high-low,11.0,rod_fixing,rod_fixing,1.0,112.12499999965077,1562783019164.0,1562783019051.0,BLIND,39.0,7.0 11.0,116.0
11095,7.0,774245.0,0.4,39.0,high,high-low,11.0,rod_fixing,rod_fixing,1.0,102.5400000071386,1562783019270.0,1562783019167.0,BLIND,39.0,7.0 11.0,106.0
11096,7.0,774245.0,0.4,39.0,high,high-low,11.0,rod_fixing,rod_fixing,1.0,99.59499999240506,1562783019373.0,1562783019273.0,BLIND,39.0,7.0 11.0,101.0
11097,7.0,774245.0,0.4,39.0,high,high-low,11.0,rod_fixing,rod_fixing,1.0,126.96500000311062,1562783019502.0,1562783019374.0,BLIND,39.0,7.0 11.0,236.0
11476,11.0,774245.0,0.1,39.0,high,high-low,11.0,rod_fixing,rod_fixing,1.0,121.90500000724569,1562783071491.0,1562783071369.0,BLIND,39.0,11.0 11.0,126.0
11477,11.0,774245.0,0.1,39.0,high,high-low,11.0,rod_fixing,rod_fixing,1.0,99.46500000660306,1562783071595.0,1562783071495.0,BLIND,39.0,11.0 11.0,103.0
11478,11.0,774245.0,0.1,39.0,high,high-low,11.0,rod_fixing,rod_fixing,1.0,119.74000000918751,1562783071719.0,1562783071598.0,BLIND,39.0,11.0 11.0,124.0
11479,11.0,774245.0,0.1,39.0,high,high-low,11.0,rod_fixing,rod_fixing,1.0,117.7800000004936,1562783071841.0,1562783071722.0,BLIND,39.0,11.0 11.0,122.0
11480,11.0,774245.0,0.1,39.0,high,high-low,11.0,rod_fixing,rod_fixing,1.0,137.87999999476594,1562783071983.0,1562783071844.0,BLIND,39.0,11.0 11.0,142.0
11481,11.0,774245.0,0.1,39.0,high,high-low,11.0,rod_fixing,rod_fixing,1.0,145.0500000064494,1562783072132.0,1562783071986.0,BLIND,39.0,11.0 11.0,281.0
11939,4.0,774245.0,0.4,39.0,high,high-low,21.0,rod_fixing,rod_fixing,1.0,122.25000000034923,1562783182671.0,1562783182548.0,BLIND,39.0,4.0 21.0,129.0
11940,4.0,774245.0,0.4,39.0,high,high-low,21.0,rod_fixing,rod_fixing,1.0,119.21499999880324,1562783182797.0,1562783182677.0,BLIND,39.0,4.0 21.0,125.0
11941,4.0,774245.0,0.4,39.0,high,high-low,21.0,rod_fixing,rod_fixing,1.0,164.5349999889731,1562783182967.0,1562783182802.0,BLIND,39.0,4.0 21.0,170.0
11942,4.0,774245.0,0.4,39.0,high,high-low,21.0,rod_fixing,rod_fixing,1.0,125.32000000646805,1562783183098.0,1562783182972.0,BLIND,39.0,4.0 21.0,132.0
11943,4.0,774245.0,0.4,39.0,high,high-low,21.0,rod_fixing,rod_fixing,1.0,122.50500000664032,1562783183227.0,1562783183104.0,BLIND,39.0,4.0 21.0,129.0
11944,4.0,774245.0,0.4,39.0,high,high-low,21.0,rod_fixing,rod_fixing,1.0,116.7049999930896,1562783183350.0,1562783183233.0,BLIND,39.0,4.0 21.0,119.0
11945,4.0,774245.0,0.4,39.0,high,high-low,21.0,rod_fixing,rod_fixing,1.0,135.08500000170898,1562783183487.0,1562783183352.0,BLIND,39.0,4.0 21.0,144.0
12329,8.0,774245.0,0.1,39.0,high,high-low,21.0,rod_fixing,rod_fixing,1.0,108.16499999782536,1562783235332.0,1562783235224.0,BLIND,39.0,8.0 21.0,113.0
12330,8.0,774245.0,0.1,39.0,high,high-low,21.0,rod_fixing,rod_fixing,1.0,121.53000000398605,1562783235459.0,1562783235337.0,BLIND,39.0,8.0 21.0,124.0
12331,8.0,774245.0,0.1,39.0,high,high-low,21.0,rod_fixing,rod_fixing,1.0,121.07499998819547,1562783235582.0,1562783235461.0,BLIND,39.0,8.0 21.0,126.0
12332,8.0,774245.0,0.1,39.0,high,high-low,21.0,rod_fixing,rod_fixing,1.0,121.44999999145512,1562783235708.0,1562783235587.0,BLIND,39.0,8.0 21.0,126.0
12333,8.0,774245.0,0.1,39.0,high,high-low,21.0,rod_fixing,rod_fixing,1.0,130.5350000038743,1562783235844.0,1562783235713.0,BLIND,39.0,8.0 21.0,136.0
12334,8.0,774245.0,0.1,39.0,high,high-low,21.0,rod_fixing,rod_fixing,1.0,111.09000000578816,1562783235961.0,1562783235849.0,BLIND,39.0,8.0 21.0,117.0
12335,8.0,774245.0,0.1,39.0,high,high-low,21.0,rod_fixing,rod_fixing,1.0,393.3850000030361,1562783236360.0,1562783235966.0,BLIND,39.0,8.0 21.0,403.0
12597,11.0,774245.0,1.0,39.0,high,high-low,21.0,rod_fixing,rod_fixing,1.0,167.31000000436325,1562783274404.0,1562783274237.0,BLIND,39.0,11.0 21.0,169.0
12598,11.0,774245.0,1.0,39.0,high,high-low,21.0,rod_fixing,rod_fixing,1.0,121.98999999964144,1562783274529.0,1562783274406.0,BLIND,39.0,11.0 21.0,128.0
12599,11.0,774245.0,1.0,39.0,high,high-low,21.0,rod_fixing,rod_fixing,1.0,130.55000000167638,1562783274665.0,1562783274534.0,BLIND,39.0,11.0 21.0,136.0
12600,11.0,774245.0,1.0,39.0,high,high-low,21.0,rod_fixing,rod_fixing,1.0,111.76500000874512,1562783274783.0,1562783274670.0,BLIND,39.0,11.0 21.0,119.0
12601,11.0,774245.0,1.0,39.0,high,high-low,21.0,rod_fixing,rod_fixing,1.0,129.60000000020955,1562783274919.0,1562783274789.0,BLIND,39.0,11.0 21.0,135.0
12602,11.0,774245.0,1.0,39.0,high,high-low,21.0,rod_fixing,rod_fixing,1.0,130.5350000038743,1562783275055.0,1562783274924.0,BLIND,39.0,11.0 21.0,275.0
12974,3.0,774245.0,1.0,39.0,low,high-low,12.0,rod_fixing,rod_fixing,1.0,119.65500000223983,1562783359183.0,1562783359063.0,BLIND,39.0,3.0 12.0,127.0
12975,3.0,774245.0,1.0,39.0,low,high-low,12.0,rod_fixing,rod_fixing,1.0,130.69499999983236,1562783359321.0,1562783359190.0,BLIND,39.0,3.0 12.0,139.0
12976,3.0,774245.0,1.0,39.0,low,high-low,12.0,rod_fixing,rod_fixing,1.0,122.69499999820258,1562783359452.0,1562783359329.0,BLIND,39.0,3.0 12.0,702.0
13319,7.0,774245.0,0.4,39.0,low,high-low,12.0,rod_fixing,rod_fixing,1.0,132.3499999998603,1562783411500.0,1562783411367.0,BLIND,39.0,7.0 12.0,141.0
13320,7.0,774245.0,0.4,39.0,low,high-low,12.0,rod_fixing,rod_fixing,1.0,126.98499999532942,1562783411636.0,1562783411508.0,BLIND,39.0,7.0 12.0,136.0
13321,7.0,774245.0,0.4,39.0,low,high-low,12.0,rod_fixing,rod_fixing,1.0,138.27500000479628,1562783411783.0,1562783411644.0,BLIND,39.0,7.0 12.0,141.0
13322,7.0,774245.0,0.4,39.0,low,high-low,12.0,rod_fixing,rod_fixing,1.0,124.244999999064,1562783411910.0,1562783411785.0,BLIND,39.0,7.0 12.0,131.0
13323,7.0,774245.0,0.4,39.0,low,high-low,12.0,rod_fixing,rod_fixing,1.0,132.75999999314078,1562783412049.0,1562783411916.0,BLIND,39.0,7.0 12.0,141.0
13324,7.0,774245.0,0.4,39.0,low,high-low,12.0,rod_fixing,rod_fixing,1.0,142.0849999994971,1562783412200.0,1562783412057.0,BLIND,39.0,7.0 12.0,151.0
13325,7.0,774245.0,0.4,39.0,low,high-low,12.0,rod_fixing,rod_fixing,1.0,122.10500000219326,1562783412331.0,1562783412208.0,BLIND,39.0,7.0 12.0,130.0
13675,11.0,774245.0,0.1,39.0,low,high-low,12.0,rod_fixing,rod_fixing,1.0,141.51999999012332,1562783464211.0,1562783464069.0,BLIND,39.0,11.0 12.0,151.0
13676,11.0,774245.0,0.1,39.0,low,high-low,12.0,rod_fixing,rod_fixing,1.0,134.3100000085542,1562783464355.0,1562783464220.0,BLIND,39.0,11.0 12.0,144.0
13677,11.0,774245.0,0.1,39.0,low,high-low,12.0,rod_fixing,rod_fixing,1.0,141.05500000005122,1562783464506.0,1562783464364.0,BLIND,39.0,11.0 12.0,148.0
13678,11.0,774245.0,0.1,39.0,low,high-low,12.0,rod_fixing,rod_fixing,1.0,150.71000000170898,1562783464663.0,1562783464512.0,BLIND,39.0,11.0 12.0,160.0
13679,11.0,774245.0,0.1,39.0,low,high-low,12.0,rod_fixing,rod_fixing,1.0,140.41500000166707,1562783464813.0,1562783464672.0,BLIND,39.0,11.0 12.0,150.0
13680,11.0,774245.0,0.1,39.0,low,high-low,12.0,rod_fixing,rod_fixing,1.0,124.18499999330379,1562783464947.0,1562783464822.0,BLIND,39.0,11.0 12.0,131.0
13681,11.0,774245.0,0.1,39.0,low,high-low,12.0,rod_fixing,rod_fixing,1.0,155.48999999009536,1562783465109.0,1562783464953.0,BLIND,39.0,11.0 12.0,168.0
14080,4.0,774245.0,0.4,39.0,low,high-low,22.0,rod_fixing,rod_fixing,1.0,125.19500000053085,1562783533204.0,1562783533079.0,BLIND,39.0,4.0 22.0,128.0
14081,4.0,774245.0,0.4,39.0,low,high-low,22.0,rod_fixing,rod_fixing,1.0,143.76000000629577,1562783533351.0,1562783533207.0,BLIND,39.0,4.0 22.0,153.0
14082,4.0,774245.0,0.4,39.0,low,high-low,22.0,rod_fixing,rod_fixing,1.0,136.7100000061328,1562783533498.0,1562783533360.0,BLIND,39.0,4.0 22.0,147.0
14083,4.0,774245.0,0.4,39.0,low,high-low,22.0,rod_fixing,rod_fixing,1.0,143.9700000046287,1562783533652.0,1562783533507.0,BLIND,39.0,4.0 22.0,147.0
14441,8.0,774245.0,0.1,39.0,low,high-low,22.0,rod_fixing,rod_fixing,1.0,127.85999999323393,1562783585743.0,1562783585615.0,BLIND,39.0,8.0 22.0,138.0
14442,8.0,774245.0,0.1,39.0,low,high-low,22.0,rod_fixing,rod_fixing,1.0,163.1699999998091,1562783585917.0,1562783585753.0,BLIND,39.0,8.0 22.0,174.0
14443,8.0,774245.0,0.1,39.0,low,high-low,22.0,rod_fixing,rod_fixing,1.0,88.91999999468679,1562783586017.0,1562783585927.0,BLIND,39.0,8.0 22.0,96.0
14444,8.0,774245.0,0.1,39.0,low,high-low,22.0,rod_fixing,rod_fixing,1.0,119.80500000936443,1562783586143.0,1562783586023.0,BLIND,39.0,8.0 22.0,126.0
14445,8.0,774245.0,0.1,39.0,low,high-low,22.0,rod_fixing,rod_fixing,1.0,133.02000000840053,1562783586282.0,1562783586149.0,BLIND,39.0,8.0 22.0,136.0
14446,8.0,774245.0,0.1,39.0,low,high-low,22.0,rod_fixing,rod_fixing,1.0,135.73000000906177,1562783586421.0,1562783586285.0,BLIND,39.0,8.0 22.0,146.0
14447,8.0,774245.0,0.1,39.0,low,high-low,22.0,rod_fixing,rod_fixing,1.0,131.19499999447729,1562783586563.0,1562783586431.0,BLIND,39.0,8.0 22.0,161.0
14695,11.0,774245.0,1.0,39.0,low,high-low,22.0,rod_fixing,rod_fixing,1.0,118.96500000148079,1562783624915.0,1562783624796.0,BLIND,39.0,11.0 22.0,129.0
14696,11.0,774245.0,1.0,39.0,low,high-low,22.0,rod_fixing,rod_fixing,1.0,124.04500000411645,1562783625050.0,1562783624925.0,BLIND,39.0,11.0 22.0,128.0
14697,11.0,774245.0,1.0,39.0,low,high-low,22.0,rod_fixing,rod_fixing,1.0,122.77000000176486,1562783625176.0,1562783625053.0,BLIND,39.0,11.0 22.0,130.0
14698,11.0,774245.0,1.0,39.0,low,high-low,22.0,rod_fixing,rod_fixing,1.0,127.13999999687077,1562783625310.0,1562783625183.0,BLIND,39.0,11.0 22.0,134.0
14699,11.0,774245.0,1.0,39.0,low,high-low,22.0,rod_fixing,rod_fixing,1.0,126.45500000508035,1562783625443.0,1562783625317.0,BLIND,39.0,11.0 22.0,129.0
14700,11.0,774245.0,1.0,39.0,low,high-low,22.0,rod_fixing,rod_fixing,1.0,137.61499999964144,1562783625584.0,1562783625446.0,BLIND,39.0,11.0 22.0,144.0
14701,11.0,774245.0,1.0,39.0,low,high-low,22.0,rod_fixing,rod_fixing,1.0,133.97999999870078,1562783625724.0,1562783625590.0,BLIND,39.0,11.0 22.0,148.0
53203,3.0,774256.0,0.1,39.0,low,low-high,11.0,rod_fixing,rod_fixing,1.0,153.3099999999249,1562783105222.0,1562783105068.0,BLIND,39.0,3.0 11.0,155.0
53204,3.0,774256.0,0.1,39.0,low,low-high,11.0,rod_fixing,rod_fixing,1.0,165.88999999998487,1562783105389.0,1562783105223.0,BLIND,39.0,3.0 11.0,167.0
53205,3.0,774256.0,0.1,39.0,low,low-high,11.0,rod_fixing,rod_fixing,1.0,168.780000000188,1562783105559.0,1562783105390.0,BLIND,39.0,3.0 11.0,171.0
53206,3.0,774256.0,0.1,39.0,low,low-high,11.0,rod_fixing,rod_fixing,1.0,159.9900000001071,1562783105722.0,1562783105561.0,BLIND,39.0,3.0 11.0,163.0
53207,3.0,774256.0,0.1,39.0,low,low-high,11.0,rod_fixing,rod_fixing,1.0,155.10999999991327,1562783105879.0,1562783105724.0,BLIND,39.0,3.0 11.0,474.0
53503,7.0,774256.0,1.0,39.0,low,low-high,11.0,rod_fixing,rod_fixing,1.0,130.2100000000355,1562783157779.0,1562783157649.0,BLIND,39.0,7.0 11.0,132.0
53504,7.0,774256.0,1.0,39.0,low,low-high,11.0,rod_fixing,rod_fixing,1.0,141.9949999999517,1562783157923.0,1562783157781.0,BLIND,39.0,7.0 11.0,143.0
53505,7.0,774256.0,1.0,39.0,low,low-high,11.0,rod_fixing,rod_fixing,1.0,132.2199999999575,1562783158057.0,1562783157924.0,BLIND,39.0,7.0 11.0,134.0
53506,7.0,774256.0,1.0,39.0,low,low-high,11.0,rod_fixing,rod_fixing,1.0,134.76000000014028,1562783158193.0,1562783158058.0,BLIND,39.0,7.0 11.0,136.0
53507,7.0,774256.0,1.0,39.0,low,low-high,11.0,rod_fixing,rod_fixing,1.0,136.32000000006522,1562783158331.0,1562783158194.0,BLIND,39.0,7.0 11.0,138.0
53508,7.0,774256.0,1.0,39.0,low,low-high,11.0,rod_fixing,rod_fixing,1.0,156.72500000004948,1562783158489.0,1562783158332.0,BLIND,39.0,7.0 11.0,350.0
53793,11.0,774256.0,2.5,39.0,low,low-high,11.0,rod_fixing,rod_fixing,1.0,160.1500000001397,1562783210186.0,1562783210025.0,BLIND,39.0,11.0 11.0,162.0
53794,11.0,774256.0,2.5,39.0,low,low-high,11.0,rod_fixing,rod_fixing,1.0,169.16500000003725,1562783210357.0,1562783210187.0,BLIND,39.0,11.0 11.0,171.0
53795,11.0,774256.0,2.5,39.0,low,low-high,11.0,rod_fixing,rod_fixing,1.0,138.65999999985797,1562783210497.0,1562783210358.0,BLIND,39.0,11.0 11.0,141.0
53796,11.0,774256.0,2.5,39.0,low,low-high,11.0,rod_fixing,rod_fixing,1.0,158.36000000010245,1562783210658.0,1562783210499.0,BLIND,39.0,11.0 11.0,161.0
53797,11.0,774256.0,2.5,39.0,low,low-high,11.0,rod_fixing,rod_fixing,1.0,167.15500000008615,1562783210828.0,1562783210660.0,BLIND,39.0,11.0 11.0,169.0
53798,11.0,774256.0,2.5,39.0,low,low-high,11.0,rod_fixing,rod_fixing,1.0,161.5450000001583,1562783210991.0,1562783210829.0,BLIND,39.0,11.0 11.0,344.0
54150,4.0,774256.0,1.0,39.0,low,low-high,21.0,rod_fixing,rod_fixing,1.0,164.0700000000652,1562783323608.0,1562783323443.0,BLIND,39.0,4.0 21.0,167.0
54151,4.0,774256.0,1.0,39.0,low,low-high,21.0,rod_fixing,rod_fixing,1.0,252.47499999997672,1562783323863.0,1562783323610.0,BLIND,39.0,4.0 21.0,255.0
54152,4.0,774256.0,1.0,39.0,low,low-high,21.0,rod_fixing,rod_fixing,1.0,247.92499999993012,1562783324114.0,1562783323865.0,BLIND,39.0,4.0 21.0,251.0
