index,trial_index,id,price_displayed,key pressed,environment,order,round_instance,task,function_id,quality_check,builtin_rt,end_time,start_time,Participant Public ID,key_pressed,trial_label,latency
39858,3.0,765957.0,1.0,39.0,low,low-high,11.0,rod_fixing,rod_fixing,1.0,163.57000000425614,1562172665356.0,1562172665190.0,BLIND,39.0,3.0 11.0,173.0
39859,3.0,765957.0,1.0,39.0,low,low-high,11.0,rod_fixing,rod_fixing,1.0,179.80499999248426,1562172665545.0,1562172665363.0,BLIND,39.0,3.0 11.0,195.0
39860,3.0,765957.0,1.0,39.0,low,low-high,11.0,rod_fixing,rod_fixing,1.0,165.0800000061281,1562172665725.0,1562172665558.0,BLIND,39.0,3.0 11.0,175.0
39861,3.0,765957.0,1.0,39.0,low,low-high,11.0,rod_fixing,rod_fixing,1.0,177.07000000518747,1562172665914.0,1562172665733.0,BLIND,39.0,3.0 11.0,184.0
39862,3.0,765957.0,1.0,39.0,low,low-high,11.0,rod_fixing,rod_fixing,1.0,196.54499998432584,1562172666114.0,1562172665917.0,BLIND,39.0,3.0 11.0,203.0
39863,3.0,765957.0,1.0,39.0,low,low-high,11.0,rod_fixing,rod_fixing,1.0,176.75499999313615,1562172666298.0,1562172666120.0,BLIND,39.0,3.0 11.0,185.0
39864,3.0,765957.0,1.0,39.0,low,low-high,11.0,rod_fixing,rod_fixing,1.0,168.15499999211167,1562172666475.0,1562172666305.0,BLIND,39.0,3.0 11.0,208.0
40140,7.0,765957.0,5.1,39.0,low,low-high,11.0,rod_fixing,rod_fixing,1.0,155.46499998890798,1562172717727.0,1562172717569.0,BLIND,39.0,7.0 11.0,179.0
40141,7.0,765957.0,5.1,39.0,low,low-high,11.0,rod_fixing,rod_fixing,1.0,137.4649999779649,1562172717887.0,1562172717748.0,BLIND,39.0,7.0 11.0,150.0
40142,7.0,765957.0,5.1,39.0,low,low-high,11.0,rod_fixing,rod_fixing,1.0,157.7850000176113,1562172718057.0,1562172717898.0,BLIND,39.0,7.0 11.0,165.0
40143,7.0,765957.0,5.1,39.0,low,low-high,11.0,rod_fixing,rod_fixing,1.0,175.94000001554375,1562172718239.0,1562172718063.0,BLIND,39.0,7.0 11.0,187.0
40144,7.0,765957.0,5.1,39.0,low,low-high,11.0,rod_fixing,rod_fixing,1.0,145.05999998073094,1562172718398.0,1562172718250.0,BLIND,39.0,7.0 11.0,157.0
40145,7.0,765957.0,5.1,39.0,low,low-high,11.0,rod_fixing,rod_fixing,1.0,147.40499999606982,1562172718557.0,1562172718407.0,BLIND,39.0,7.0 11.0,159.0
40436,11.0,765957.0,1.0,39.0,low,low-high,11.0,rod_fixing,rod_fixing,1.0,168.0700000142679,1562172771030.0,1562172770861.0,BLIND,39.0,11.0 11.0,180.0
40437,11.0,765957.0,1.0,39.0,low,low-high,11.0,rod_fixing,rod_fixing,1.0,175.83500000182542,1562172771219.0,1562172771041.0,BLIND,39.0,11.0 11.0,188.0
40438,11.0,765957.0,1.0,39.0,low,low-high,11.0,rod_fixing,rod_fixing,1.0,148.3099999895785,1562172771380.0,1562172771229.0,BLIND,39.0,11.0 11.0,159.0
40439,11.0,765957.0,1.0,39.0,low,low-high,11.0,rod_fixing,rod_fixing,1.0,139.43000001017936,1562172771530.0,1562172771388.0,BLIND,39.0,11.0 11.0,151.0
40440,11.0,765957.0,1.0,39.0,low,low-high,11.0,rod_fixing,rod_fixing,1.0,159.71999999601394,1562172771700.0,1562172771539.0,BLIND,39.0,11.0 11.0,174.0
40441,11.0,765957.0,1.0,39.0,low,low-high,11.0,rod_fixing,rod_fixing,1.0,157.53999998560175,1562172771872.0,1562172771713.0,BLIND,39.0,11.0 11.0,171.0
40442,11.0,765957.0,1.0,39.0,low,low-high,11.0,rod_fixing,rod_fixing,1.0,152.94999998877756,1562172772038.0,1562172771884.0,BLIND,39.0,11.0 11.0,166.0
40811,4.0,765957.0,0.1,39.0,low,low-high,21.0,rod_fixing,rod_fixing,1.0,154.48500000638887,1562172862243.0,1562172862086.0,BLIND,39.0,4.0 21.0,174.0
40812,4.0,765957.0,0.1,39.0,low,low-high,21.0,rod_fixing,rod_fixing,1.0,162.84500001347627,1562172862425.0,1562172862260.0,BLIND,39.0,4.0 21.0,181.0
40813,4.0,765957.0,0.1,39.0,low,low-high,21.0,rod_fixing,rod_fixing,1.0,129.92500001564622,1562172862572.0,1562172862441.0,BLIND,39.0,4.0 21.0,146.0
40814,4.0,765957.0,0.1,39.0,low,low-high,21.0,rod_fixing,rod_fixing,1.0,133.3899999735877,1562172862722.0,1562172862587.0,BLIND,39.0,4.0 21.0,144.0
40815,4.0,765957.0,0.1,39.0,low,low-high,21.0,rod_fixing,rod_fixing,1.0,150.09999999892898,1562172862883.0,1562172862731.0,BLIND,39.0,4.0 21.0,162.0
40816,4.0,765957.0,0.1,39.0,low,low-high,21.0,rod_fixing,rod_fixing,1.0,147.59000000776726,1562172863042.0,1562172862893.0,BLIND,39.0,4.0 21.0,355.0
41079,8.0,765957.0,0.4,39.0,low,low-high,21.0,rod_fixing,rod_fixing,1.0,137.00999997672622,1562172914883.0,1562172914744.0,BLIND,39.0,8.0 21.0,145.0
41080,8.0,765957.0,0.4,39.0,low,low-high,21.0,rod_fixing,rod_fixing,1.0,145.58000001125038,1562172915035.0,1562172914889.0,BLIND,39.0,8.0 21.0,153.0
41081,8.0,765957.0,0.4,39.0,low,low-high,21.0,rod_fixing,rod_fixing,1.0,271.2150000152178,1562172915314.0,1562172915042.0,BLIND,39.0,8.0 21.0,283.0
41082,8.0,765957.0,0.4,39.0,low,low-high,21.0,rod_fixing,rod_fixing,1.0,127.6050000160467,1562172915455.0,1562172915325.0,BLIND,39.0,8.0 21.0,140.0
41083,8.0,765957.0,0.4,39.0,low,low-high,21.0,rod_fixing,rod_fixing,1.0,127.53500000690109,1562172915594.0,1562172915465.0,BLIND,39.0,8.0 21.0,140.0
41084,8.0,765957.0,0.4,39.0,low,low-high,21.0,rod_fixing,rod_fixing,1.0,136.7900000186637,1562172915744.0,1562172915605.0,BLIND,39.0,8.0 21.0,155.0
41085,8.0,765957.0,0.4,39.0,low,low-high,21.0,rod_fixing,rod_fixing,1.0,162.61499997926873,1562172915925.0,1562172915760.0,BLIND,39.0,8.0 21.0,210.0
41277,11.0,765957.0,1.0,40.0,low,low-high,21.0,rod_fixing,rod_fixing,1.0,38.980000012088574,1562172949625.0,1562172949585.0,BLIND,40.0,11.0 21.0,153.0
41278,11.0,765957.0,1.0,40.0,low,low-high,21.0,rod_fixing,rod_fixing,1.0,56.83000001590699,1562172949795.0,1562172949738.0,BLIND,40.0,11.0 21.0,169.0
41279,11.0,765957.0,1.0,40.0,low,low-high,21.0,rod_fixing,rod_fixing,1.0,46.905000024707995,1562172949955.0,1562172949907.0,BLIND,40.0,11.0 21.0,166.0
41280,11.0,765957.0,1.0,40.0,low,low-high,21.0,rod_fixing,rod_fixing,1.0,63.150000001769506,1562172950137.0,1562172950073.0,BLIND,40.0,11.0 21.0,174.0
41281,11.0,765957.0,1.0,40.0,low,low-high,21.0,rod_fixing,rod_fixing,1.0,66.8899999873247,1562172950316.0,1562172950247.0,BLIND,40.0,11.0 21.0,179.0
41282,11.0,765957.0,1.0,40.0,low,low-high,21.0,rod_fixing,rod_fixing,1.0,27.945000008912764,1562172950455.0,1562172950426.0,BLIND,40.0,11.0 21.0,141.0
41283,11.0,765957.0,1.0,40.0,low,low-high,21.0,rod_fixing,rod_fixing,1.0,36.97499999543653,1562172950605.0,1562172950567.0,BLIND,40.0,11.0 21.0,151.0
41284,11.0,765957.0,1.0,40.0,low,low-high,21.0,rod_fixing,rod_fixing,1.0,46.75000000861474,1562172950766.0,1562172950718.0,BLIND,40.0,11.0 21.0,168.0
41285,11.0,765957.0,1.0,40.0,low,low-high,21.0,rod_fixing,rod_fixing,1.0,16.594999993685633,1562172950904.0,1562172950886.0,BLIND,40.0,11.0 21.0,135.0
41286,11.0,765957.0,1.0,40.0,low,low-high,21.0,rod_fixing,rod_fixing,1.0,193.14999997732232,1562172951214.0,1562172951021.0,BLIND,40.0,11.0 21.0,306.0
41287,11.0,765957.0,1.0,40.0,low,low-high,21.0,rod_fixing,rod_fixing,1.0,76.2749999994412,1562172951405.0,1562172951327.0,BLIND,40.0,11.0 21.0,194.0
41288,11.0,765957.0,1.0,40.0,low,low-high,21.0,rod_fixing,rod_fixing,1.0,72.81499999226071,1562172951595.0,1562172951521.0,BLIND,40.0,11.0 21.0,189.0
41289,11.0,765957.0,1.0,40.0,low,low-high,21.0,rod_fixing,rod_fixing,1.0,53.5200000158511,1562172951765.0,1562172951710.0,BLIND,40.0,11.0 21.0,170.0
41290,11.0,765957.0,1.0,40.0,low,low-high,21.0,rod_fixing,rod_fixing,1.0,23.290000011911612,1562172951905.0,1562172951880.0,BLIND,40.0,11.0 21.0,143.0
41291,11.0,765957.0,1.0,40.0,low,low-high,21.0,rod_fixing,rod_fixing,1.0,50.419999985024326,1562172952075.0,1562172952023.0,BLIND,40.0,11.0 21.0,162.0
41292,11.0,765957.0,1.0,40.0,low,low-high,21.0,rod_fixing,rod_fixing,1.0,48.91499999212101,1562172952235.0,1562172952185.0,BLIND,40.0,11.0 21.0,164.0
41293,11.0,765957.0,1.0,40.0,low,low-high,21.0,rod_fixing,rod_fixing,1.0,35.95999997924082,1562172952386.0,1562172952349.0,BLIND,40.0,11.0 21.0,150.0
41294,11.0,765957.0,1.0,40.0,low,low-high,21.0,rod_fixing,rod_fixing,1.0,44.454999995650724,1562172952544.0,1562172952499.0,BLIND,40.0,11.0 21.0,158.0
41295,11.0,765957.0,1.0,40.0,low,low-high,21.0,rod_fixing,rod_fixing,1.0,146.21999999508262,1562172952804.0,1562172952657.0,BLIND,40.0,11.0 21.0,286.0
41299,11.0,765957.0,1.0,39.0,low,low-high,21.0,rod_fixing,rod_fixing,1.0,1897.049999999581,1562172954845.0,1562172952943.0,BLIND,39.0,11.0 21.0,1912.0
41300,11.0,765957.0,1.0,39.0,low,low-high,21.0,rod_fixing,rod_fixing,1.0,198.92499997513372,1562172955055.0,1562172954855.0,BLIND,39.0,11.0 21.0,208.0
41301,11.0,765957.0,1.0,39.0,low,low-high,21.0,rod_fixing,rod_fixing,1.0,140.54500000202094,1562172955206.0,1562172955063.0,BLIND,39.0,11.0 21.0,157.0
41302,11.0,765957.0,1.0,39.0,low,low-high,21.0,rod_fixing,rod_fixing,1.0,97.61499997694044,1562172955319.0,1562172955220.0,BLIND,39.0,11.0 21.0,108.0
41303,11.0,765957.0,1.0,39.0,low,low-high,21.0,rod_fixing,rod_fixing,1.0,175.75499997474256,1562172955504.0,1562172955328.0,BLIND,39.0,11.0 21.0,190.0
41304,11.0,765957.0,1.0,39.0,low,low-high,21.0,rod_fixing,rod_fixing,1.0,284.62999998009764,1562172955805.0,1562172955518.0,BLIND,39.0,11.0 21.0,303.0
41542,3.0,765957.0,1.0,39.0,high,low-high,12.0,rod_fixing,rod_fixing,1.0,169.28999999072403,1562173082718.0,1562173082547.0,BLIND,39.0,3.0 12.0,190.0
41543,3.0,765957.0,1.0,39.0,high,low-high,12.0,rod_fixing,rod_fixing,1.0,141.31999999517575,1562173082879.0,1562173082737.0,BLIND,39.0,3.0 12.0,159.0
41544,3.0,765957.0,1.0,39.0,high,low-high,12.0,rod_fixing,rod_fixing,1.0,139.885000011418,1562173083038.0,1562173082896.0,BLIND,39.0,3.0 12.0,154.0
41545,3.0,765957.0,1.0,39.0,high,low-high,12.0,rod_fixing,rod_fixing,1.0,136.9400000257883,1562173083189.0,1562173083050.0,BLIND,39.0,3.0 12.0,153.0
41546,3.0,765957.0,1.0,39.0,high,low-high,12.0,rod_fixing,rod_fixing,1.0,145.75499997590668,1562173083350.0,1562173083203.0,BLIND,39.0,3.0 12.0,161.0
41547,3.0,765957.0,1.0,39.0,high,low-high,12.0,rod_fixing,rod_fixing,1.0,132.70499999634922,1562173083498.0,1562173083364.0,BLIND,39.0,3.0 12.0,146.0
41548,3.0,765957.0,1.0,39.0,high,low-high,12.0,rod_fixing,rod_fixing,1.0,146.36500002234243,1562173083658.0,1562173083510.0,BLIND,39.0,3.0 12.0,213.0
41848,7.0,765957.0,5.1,39.0,high,low-high,12.0,rod_fixing,rod_fixing,1.0,150.59999999357387,1562173135129.0,1562173134973.0,BLIND,39.0,7.0 12.0,171.0
41849,7.0,765957.0,5.1,39.0,high,low-high,12.0,rod_fixing,rod_fixing,1.0,154.5899999910034,1562173135299.0,1562173135144.0,BLIND,39.0,7.0 12.0,170.0
41850,7.0,765957.0,5.1,39.0,high,low-high,12.0,rod_fixing,rod_fixing,1.0,143.98500000243075,1562173135460.0,1562173135314.0,BLIND,39.0,7.0 12.0,163.0
41851,7.0,765957.0,5.1,39.0,high,low-high,12.0,rod_fixing,rod_fixing,1.0,141.46000001346692,1562173135620.0,1562173135477.0,BLIND,39.0,7.0 12.0,158.0
41852,7.0,765957.0,5.1,39.0,high,low-high,12.0,rod_fixing,rod_fixing,1.0,113.3700000063982,1562173135749.0,1562173135635.0,BLIND,39.0,7.0 12.0,127.0
41853,7.0,765957.0,5.1,39.0,high,low-high,12.0,rod_fixing,rod_fixing,1.0,145.96500000334342,1562173135910.0,1562173135762.0,BLIND,39.0,7.0 12.0,166.0
41854,7.0,765957.0,5.1,39.0,high,low-high,12.0,rod_fixing,rod_fixing,1.0,120.36000000080094,1562173136049.0,1562173135928.0,BLIND,39.0,7.0 12.0,189.0
42150,11.0,765957.0,1.0,39.0,high,low-high,12.0,rod_fixing,rod_fixing,1.0,127.40999998641199,1562173187511.0,1562173187382.0,BLIND,39.0,11.0 12.0,145.0
42151,11.0,765957.0,1.0,39.0,high,low-high,12.0,rod_fixing,rod_fixing,1.0,151.45999999367632,1562173187680.0,1562173187527.0,BLIND,39.0,11.0 12.0,177.0
42152,11.0,765957.0,1.0,39.0,high,low-high,12.0,rod_fixing,rod_fixing,1.0,126.42499999492428,1562173187832.0,1562173187704.0,BLIND,39.0,11.0 12.0,149.0
42153,11.0,765957.0,1.0,39.0,high,low-high,12.0,rod_fixing,rod_fixing,1.0,165.17500000190918,1562173188020.0,1562173187853.0,BLIND,39.0,11.0 12.0,190.0
42154,11.0,765957.0,1.0,39.0,high,low-high,12.0,rod_fixing,rod_fixing,1.0,154.74499997799285,1562173188200.0,1562173188043.0,BLIND,39.0,11.0 12.0,171.0
42155,11.0,765957.0,1.0,39.0,high,low-high,12.0,rod_fixing,rod_fixing,1.0,133.97500000428408,1562173188350.0,1562173188214.0,BLIND,39.0,11.0 12.0,153.0
42156,11.0,765957.0,1.0,39.0,high,low-high,12.0,rod_fixing,rod_fixing,1.0,131.67499998235144,1562173188500.0,1562173188367.0,BLIND,39.0,11.0 12.0,206.0
42824,8.0,765957.0,0.4,39.0,high,low-high,22.0,rod_fixing,rod_fixing,1.0,169.22499999054708,1562173344177.0,1562173344006.0,BLIND,39.0,8.0 22.0,194.0
42825,8.0,765957.0,0.4,39.0,high,low-high,22.0,rod_fixing,rod_fixing,1.0,155.44499998213723,1562173344357.0,1562173344200.0,BLIND,39.0,8.0 22.0,176.0
42826,8.0,765957.0,0.4,39.0,high,low-high,22.0,rod_fixing,rod_fixing,1.0,151.45999999367632,1562173344529.0,1562173344376.0,BLIND,39.0,8.0 22.0,169.0
42827,8.0,765957.0,0.4,39.0,high,low-high,22.0,rod_fixing,rod_fixing,1.0,140.64999998663552,1562173344687.0,1562173344545.0,BLIND,39.0,8.0 22.0,161.0
42828,8.0,765957.0,0.4,39.0,high,low-high,22.0,rod_fixing,rod_fixing,1.0,140.58000000659376,1562173344849.0,1562173344706.0,BLIND,39.0,8.0 22.0,165.0
42829,8.0,765957.0,0.4,39.0,high,low-high,22.0,rod_fixing,rod_fixing,1.0,164.69999999389984,1562173345037.0,1562173344871.0,BLIND,39.0,8.0 22.0,187.0
42830,8.0,765957.0,0.4,39.0,high,low-high,22.0,rod_fixing,rod_fixing,1.0,159.55499999108724,1562173345218.0,1562173345058.0,BLIND,39.0,8.0 22.0,254.0
43009,11.0,765957.0,1.0,39.0,high,low-high,22.0,rod_fixing,rod_fixing,1.0,286.14500002004206,1562173383258.0,1562173382971.0,BLIND,39.0,11.0 22.0,311.0
43010,11.0,765957.0,1.0,39.0,high,low-high,22.0,rod_fixing,rod_fixing,1.0,133.35499999811873,1562173383417.0,1562173383282.0,BLIND,39.0,11.0 22.0,152.0
43011,11.0,765957.0,1.0,39.0,high,low-high,22.0,rod_fixing,rod_fixing,1.0,130.41000001248906,1562173383565.0,1562173383434.0,BLIND,39.0,11.0 22.0,139.0
43012,11.0,765957.0,1.0,39.0,high,low-high,22.0,rod_fixing,rod_fixing,1.0,144.00999998906627,1562173383717.0,1562173383573.0,BLIND,39.0,11.0 22.0,170.0
43013,11.0,765957.0,1.0,39.0,high,low-high,22.0,rod_fixing,rod_fixing,1.0,124.004999990575,1562173383869.0,1562173383743.0,BLIND,39.0,11.0 22.0,148.0
43014,11.0,765957.0,1.0,39.0,high,low-high,22.0,rod_fixing,rod_fixing,1.0,143.7900000018999,1562173384037.0,1562173383891.0,BLIND,39.0,11.0 22.0,170.0
43015,11.0,765957.0,1.0,39.0,high,low-high,22.0,rod_fixing,rod_fixing,1.0,135.61500000650994,1562173384198.0,1562173384061.0,BLIND,39.0,11.0 22.0,222.0
41296,11.0,765957.0,1.0,,low,low-high,21.0,rod_fixing,rod_fixing,1.0,,,,BLIND,,11.0 21.0,
41297,11.0,765957.0,1.0,,low,low-high,21.0,rod_fixing,rod_fixing,1.0,,,,BLIND,,11.0 21.0,
41298,11.0,765957.0,1.0,,low,low-high,21.0,rod_fixing,rod_fixing,1.0,,,,BLIND,,11.0 21.0,
178,3.0,765963.0,5.1,39.0,high,high-low,11.0,rod_fixing,rod_fixing,1.0,131.9999999832362,1562173362802.0,1562173362670.0,BLIND,39.0,3.0 11.0,134.0
179,3.0,765963.0,5.1,39.0,high,high-low,11.0,rod_fixing,rod_fixing,1.0,148.00000004470346,1562173362953.0,1562173362804.0,BLIND,39.0,3.0 11.0,152.0
180,3.0,765963.0,5.1,39.0,high,high-low,11.0,rod_fixing,rod_fixing,1.0,148.00000004470346,1562173363106.0,1562173362956.0,BLIND,39.0,3.0 11.0,152.0
181,3.0,765963.0,5.1,39.0,high,high-low,11.0,rod_fixing,rod_fixing,1.0,148.00000004470346,1562173363258.0,1562173363108.0,BLIND,39.0,3.0 11.0,152.0
182,3.0,765963.0,5.1,39.0,high,high-low,11.0,rod_fixing,rod_fixing,1.0,165.0000000372529,1562173363425.0,1562173363260.0,BLIND,39.0,3.0 11.0,168.0
183,3.0,765963.0,5.1,39.0,high,high-low,11.0,rod_fixing,rod_fixing,1.0,148.00000004470346,1562173363577.0,1562173363428.0,BLIND,39.0,3.0 11.0,152.0
184,3.0,765963.0,5.1,39.0,high,high-low,11.0,rod_fixing,rod_fixing,1.0,141.00000006146732,1562173363722.0,1562173363580.0,BLIND,39.0,3.0 11.0,152.0
519,7.0,765963.0,6.0,39.0,high,high-low,11.0,rod_fixing,rod_fixing,1.0,140.00000013038516,1562173413729.0,1562173413588.0,BLIND,39.0,7.0 11.0,145.0
520,7.0,765963.0,6.0,39.0,high,high-low,11.0,rod_fixing,rod_fixing,1.0,148.00000004470346,1562173413881.0,1562173413733.0,BLIND,39.0,7.0 11.0,151.0
521,7.0,765963.0,6.0,39.0,high,high-low,11.0,rod_fixing,rod_fixing,1.0,155.9999999590218,1562173414041.0,1562173413884.0,BLIND,39.0,7.0 11.0,160.0
522,7.0,765963.0,6.0,39.0,high,high-low,11.0,rod_fixing,rod_fixing,1.0,155.9999999590218,1562173414201.0,1562173414044.0,BLIND,39.0,7.0 11.0,160.0
523,7.0,765963.0,6.0,39.0,high,high-low,11.0,rod_fixing,rod_fixing,1.0,157.00000012293458,1562173414362.0,1562173414204.0,BLIND,39.0,7.0 11.0,160.0
524,7.0,765963.0,6.0,39.0,high,high-low,11.0,rod_fixing,rod_fixing,1.0,163.99999987334013,1562173414529.0,1562173414364.0,BLIND,39.0,7.0 11.0,168.0
525,7.0,765963.0,6.0,39.0,high,high-low,11.0,rod_fixing,rod_fixing,1.0,156.00000019185242,1562173414689.0,1562173414532.0,BLIND,39.0,7.0 11.0,169.0
846,11.0,765963.0,1.0,39.0,high,high-low,11.0,rod_fixing,rod_fixing,1.0,116.00000015459958,1562173465818.0,1562173465701.0,BLIND,39.0,11.0 11.0,120.0
847,11.0,765963.0,1.0,39.0,high,high-low,11.0,rod_fixing,rod_fixing,1.0,155.9999999590218,1562173465978.0,1562173465821.0,BLIND,39.0,11.0 11.0,160.0
848,11.0,765963.0,1.0,39.0,high,high-low,11.0,rod_fixing,rod_fixing,1.0,148.00000004470346,1562173466130.0,1562173465981.0,BLIND,39.0,11.0 11.0,152.0
849,11.0,765963.0,1.0,39.0,high,high-low,11.0,rod_fixing,rod_fixing,1.0,155.9999999590218,1562173466290.0,1562173466133.0,BLIND,39.0,11.0 11.0,160.0
850,11.0,765963.0,1.0,39.0,high,high-low,11.0,rod_fixing,rod_fixing,1.0,165.0000000372529,1562173466458.0,1562173466293.0,BLIND,39.0,11.0 11.0,167.0
851,11.0,765963.0,1.0,39.0,high,high-low,11.0,rod_fixing,rod_fixing,1.0,149.99999990686774,1562173466610.0,1562173466460.0,BLIND,39.0,11.0 11.0,153.0
852,11.0,765963.0,1.0,39.0,high,high-low,11.0,rod_fixing,rod_fixing,1.0,165.0000000372529,1562173466778.0,1562173466613.0,BLIND,39.0,11.0 11.0,177.0
1252,4.0,765963.0,0.1,39.0,high,high-low,21.0,rod_fixing,rod_fixing,1.0,153.9999998640269,1562173537442.0,1562173537287.0,BLIND,39.0,4.0 21.0,159.0
1253,4.0,765963.0,0.1,39.0,high,high-low,21.0,rod_fixing,rod_fixing,1.0,155.00000002793968,1562173537602.0,1562173537446.0,BLIND,39.0,4.0 21.0,161.0
1254,4.0,765963.0,0.1,39.0,high,high-low,21.0,rod_fixing,rod_fixing,1.0,154.00000009685758,1562173537762.0,1562173537607.0,BLIND,39.0,4.0 21.0,159.0
1255,4.0,765963.0,0.1,39.0,high,high-low,21.0,rod_fixing,rod_fixing,1.0,163.00000017508864,1562173537930.0,1562173537766.0,BLIND,39.0,4.0 21.0,168.0
1256,4.0,765963.0,0.1,39.0,high,high-low,21.0,rod_fixing,rod_fixing,1.0,155.00000002793968,1562173538090.0,1562173537934.0,BLIND,39.0,4.0 21.0,160.0
1257,4.0,765963.0,0.1,39.0,high,high-low,21.0,rod_fixing,rod_fixing,1.0,154.99999979510903,1562173538250.0,1562173538094.0,BLIND,39.0,4.0 21.0,160.0
1258,4.0,765963.0,0.1,39.0,high,high-low,21.0,rod_fixing,rod_fixing,1.0,155.00000002793968,1562173538410.0,1562173538254.0,BLIND,39.0,4.0 21.0,172.0
1549,8.0,765963.0,2.5,39.0,high,high-low,21.0,rod_fixing,rod_fixing,1.0,145.9999999497086,1562173589307.0,1562173589159.0,BLIND,39.0,8.0 21.0,152.0
1550,8.0,765963.0,2.5,39.0,high,high-low,21.0,rod_fixing,rod_fixing,1.0,169.9999999254942,1562173589483.0,1562173589311.0,BLIND,39.0,8.0 21.0,176.0
1551,8.0,765963.0,2.5,39.0,high,high-low,21.0,rod_fixing,rod_fixing,1.0,163.99999987334013,1562173589651.0,1562173589487.0,BLIND,39.0,8.0 21.0,169.0
1552,8.0,765963.0,2.5,39.0,high,high-low,21.0,rod_fixing,rod_fixing,1.0,162.999999942258,1562173589819.0,1562173589656.0,BLIND,39.0,8.0 21.0,167.0
1553,8.0,765963.0,2.5,39.0,high,high-low,21.0,rod_fixing,rod_fixing,1.0,162.00000001117587,1562173589987.0,1562173589823.0,BLIND,39.0,8.0 21.0,168.0
1554,8.0,765963.0,2.5,39.0,high,high-low,21.0,rod_fixing,rod_fixing,1.0,162.00000001117587,1562173590155.0,1562173589991.0,BLIND,39.0,8.0 21.0,168.0
1555,8.0,765963.0,2.5,39.0,high,high-low,21.0,rod_fixing,rod_fixing,1.0,170.9999998565763,1562173590331.0,1562173590159.0,BLIND,39.0,8.0 21.0,188.0
1774,11.0,765963.0,6.0,39.0,high,high-low,21.0,rod_fixing,rod_fixing,1.0,179.00000000372532,1562173628443.0,1562173628263.0,BLIND,39.0,11.0 21.0,184.0
1775,11.0,765963.0,6.0,39.0,high,high-low,21.0,rod_fixing,rod_fixing,1.0,178.00000007264316,1562173628626.0,1562173628447.0,BLIND,39.0,11.0 21.0,185.0
1776,11.0,765963.0,6.0,39.0,high,high-low,21.0,rod_fixing,rod_fixing,1.0,185.99999998696148,1562173628818.0,1562173628632.0,BLIND,39.0,11.0 21.0,190.0
1777,11.0,765963.0,6.0,39.0,high,high-low,21.0,rod_fixing,rod_fixing,1.0,202.0000000484288,1562173629025.0,1562173628822.0,BLIND,39.0,11.0 21.0,208.0
1778,11.0,765963.0,6.0,39.0,high,high-low,21.0,rod_fixing,rod_fixing,1.0,185.99999998696148,1562173629217.0,1562173629030.0,BLIND,39.0,11.0 21.0,191.0
1779,11.0,765963.0,6.0,39.0,high,high-low,21.0,rod_fixing,rod_fixing,1.0,188.00000008195641,1562173629409.0,1562173629221.0,BLIND,39.0,11.0 21.0,192.0
1780,11.0,765963.0,6.0,39.0,high,high-low,21.0,rod_fixing,rod_fixing,1.0,179.9999999348074,1562173629593.0,1562173629413.0,BLIND,39.0,11.0 21.0,199.0
2087,3.0,765963.0,5.1,39.0,low,high-low,12.0,rod_fixing,rod_fixing,1.0,584.9999999627471,1562173695674.0,1562173695088.0,BLIND,39.0,3.0 12.0,591.0
2088,3.0,765963.0,5.1,39.0,low,high-low,12.0,rod_fixing,rod_fixing,1.0,185.99999998696148,1562173695866.0,1562173695679.0,BLIND,39.0,3.0 12.0,192.0
2089,3.0,765963.0,5.1,39.0,low,high-low,12.0,rod_fixing,rod_fixing,1.0,193.99999990127984,1562173696066.0,1562173695871.0,BLIND,39.0,3.0 12.0,200.0
2090,3.0,765963.0,5.1,39.0,low,high-low,12.0,rod_fixing,rod_fixing,1.0,202.0000000484288,1562173696274.0,1562173696071.0,BLIND,39.0,3.0 12.0,209.0
2091,3.0,765963.0,5.1,39.0,low,high-low,12.0,rod_fixing,rod_fixing,1.0,200.999999884516,1562173696482.0,1562173696280.0,BLIND,39.0,3.0 12.0,207.0
2092,3.0,765963.0,5.1,39.0,low,high-low,12.0,rod_fixing,rod_fixing,1.0,194.999999832362,1562173696682.0,1562173696487.0,BLIND,39.0,3.0 12.0,202.0
2093,3.0,765963.0,5.1,39.0,low,high-low,12.0,rod_fixing,rod_fixing,1.0,415.99999996833503,1562173697106.0,1562173696689.0,BLIND,39.0,3.0 12.0,438.0
2321,7.0,765963.0,6.0,39.0,low,high-low,12.0,rod_fixing,rod_fixing,1.0,223.99999992921948,1562173749098.0,1562173748872.0,BLIND,39.0,7.0 12.0,231.0
2322,7.0,765963.0,6.0,39.0,low,high-low,12.0,rod_fixing,rod_fixing,1.0,209.99999996274707,1562173749313.0,1562173749103.0,BLIND,39.0,7.0 12.0,216.0
2323,7.0,765963.0,6.0,39.0,low,high-low,12.0,rod_fixing,rod_fixing,1.0,218.0000001098961,1562173749537.0,1562173749319.0,BLIND,39.0,7.0 12.0,224.0
2324,7.0,765963.0,6.0,39.0,low,high-low,12.0,rod_fixing,rod_fixing,1.0,234.0000001713633,1562173749777.0,1562173749543.0,BLIND,39.0,7.0 12.0,240.0
2325,7.0,765963.0,6.0,39.0,low,high-low,12.0,rod_fixing,rod_fixing,1.0,226.00000002421442,1562173750009.0,1562173749783.0,BLIND,39.0,7.0 12.0,232.0
2326,7.0,765963.0,6.0,39.0,low,high-low,12.0,rod_fixing,rod_fixing,1.0,218.0000001098961,1562173750233.0,1562173750015.0,BLIND,39.0,7.0 12.0,226.0
2327,7.0,765963.0,6.0,39.0,low,high-low,12.0,rod_fixing,rod_fixing,1.0,232.00000007636845,1562173750473.0,1562173750241.0,BLIND,39.0,7.0 12.0,254.0
2542,11.0,765963.0,1.0,39.0,low,high-low,12.0,rod_fixing,rod_fixing,1.0,232.00000007636845,1562173799801.0,1562173799568.0,BLIND,39.0,11.0 12.0,239.0
2543,11.0,765963.0,1.0,39.0,low,high-low,12.0,rod_fixing,rod_fixing,1.0,225.99999979138371,1562173800033.0,1562173799807.0,BLIND,39.0,11.0 12.0,232.0
2544,11.0,765963.0,1.0,39.0,low,high-low,12.0,rod_fixing,rod_fixing,1.0,218.0000001098961,1562173800257.0,1562173800039.0,BLIND,39.0,11.0 12.0,223.0
2545,11.0,765963.0,1.0,39.0,low,high-low,12.0,rod_fixing,rod_fixing,1.0,209.99999996274707,1562173800473.0,1562173800262.0,BLIND,39.0,11.0 12.0,217.0
2546,11.0,765963.0,1.0,39.0,low,high-low,12.0,rod_fixing,rod_fixing,1.0,200.999999884516,1562173800681.0,1562173800479.0,BLIND,39.0,11.0 12.0,208.0
2547,11.0,765963.0,1.0,39.0,low,high-low,12.0,rod_fixing,rod_fixing,1.0,225.00000009313226,1562173800913.0,1562173800687.0,BLIND,39.0,11.0 12.0,235.0
2548,11.0,765963.0,1.0,39.0,low,high-low,12.0,rod_fixing,rod_fixing,1.0,222.99999999813733,1562173801145.0,1562173800922.0,BLIND,39.0,11.0 12.0,246.0
2790,4.0,765963.0,0.1,39.0,low,high-low,22.0,rod_fixing,rod_fixing,1.0,256.9999999832362,1562173872841.0,1562173872584.0,BLIND,39.0,4.0 22.0,263.0
2791,4.0,765963.0,0.1,39.0,low,high-low,22.0,rod_fixing,rod_fixing,1.0,234.0000001713633,1562173873081.0,1562173872847.0,BLIND,39.0,4.0 22.0,240.0
2792,4.0,765963.0,0.1,39.0,low,high-low,22.0,rod_fixing,rod_fixing,1.0,266.00000006146735,1562173873353.0,1562173873087.0,BLIND,39.0,4.0 22.0,272.0
2793,4.0,765963.0,0.1,39.0,low,high-low,22.0,rod_fixing,rod_fixing,1.0,250.0,1562173873609.0,1562173873359.0,BLIND,39.0,4.0 22.0,256.0
2794,4.0,765963.0,0.1,39.0,low,high-low,22.0,rod_fixing,rod_fixing,1.0,273.9999999757856,1562173873889.0,1562173873615.0,BLIND,39.0,4.0 22.0,281.0
2795,4.0,765963.0,0.1,39.0,low,high-low,22.0,rod_fixing,rod_fixing,1.0,263.9999999664724,1562173874161.0,1562173873896.0,BLIND,39.0,4.0 22.0,271.0
2796,4.0,765963.0,0.1,39.0,low,high-low,22.0,rod_fixing,rod_fixing,1.0,250.0,1562173874417.0,1562173874167.0,BLIND,39.0,4.0 22.0,276.0
3006,8.0,765963.0,2.5,39.0,low,high-low,22.0,rod_fixing,rod_fixing,1.0,256.00000005215406,1562173924081.0,1562173923825.0,BLIND,39.0,8.0 22.0,262.0
3007,8.0,765963.0,2.5,39.0,low,high-low,22.0,rod_fixing,rod_fixing,1.0,200.999999884516,1562173924289.0,1562173924087.0,BLIND,39.0,8.0 22.0,208.0
3008,8.0,765963.0,2.5,39.0,low,high-low,22.0,rod_fixing,rod_fixing,1.0,225.00000009313226,1562173924521.0,1562173924295.0,BLIND,39.0,8.0 22.0,232.0
3009,8.0,765963.0,2.5,39.0,low,high-low,22.0,rod_fixing,rod_fixing,1.0,216.99999994598332,1562173924745.0,1562173924527.0,BLIND,39.0,8.0 22.0,224.0
3010,8.0,765963.0,2.5,39.0,low,high-low,22.0,rod_fixing,rod_fixing,1.0,241.00000015459958,1562173924993.0,1562173924751.0,BLIND,39.0,8.0 22.0,249.0
3011,8.0,765963.0,2.5,39.0,low,high-low,22.0,rod_fixing,rod_fixing,1.0,224.99999986030159,1562173925225.0,1562173925000.0,BLIND,39.0,8.0 22.0,232.0
3012,8.0,765963.0,2.5,39.0,low,high-low,22.0,rod_fixing,rod_fixing,1.0,216.0000000149012,1562173925449.0,1562173925232.0,BLIND,39.0,8.0 22.0,242.0
3198,11.0,765963.0,6.0,39.0,low,high-low,22.0,rod_fixing,rod_fixing,1.0,248.00000013783574,1562173963273.0,1562173963025.0,BLIND,39.0,11.0 22.0,255.0
3199,11.0,765963.0,6.0,39.0,low,high-low,22.0,rod_fixing,rod_fixing,1.0,207.9999998677522,1562173963489.0,1562173963280.0,BLIND,39.0,11.0 22.0,215.0
3200,11.0,765963.0,6.0,39.0,low,high-low,22.0,rod_fixing,rod_fixing,1.0,208.9999997988343,1562173963705.0,1562173963495.0,BLIND,39.0,11.0 22.0,217.0
3201,11.0,765963.0,6.0,39.0,low,high-low,22.0,rod_fixing,rod_fixing,1.0,217.00000017881396,1562173963929.0,1562173963712.0,BLIND,39.0,11.0 22.0,223.0
3202,11.0,765963.0,6.0,39.0,low,high-low,22.0,rod_fixing,rod_fixing,1.0,209.00000003166497,1562173964145.0,1562173963935.0,BLIND,39.0,11.0 22.0,219.0
3203,11.0,765963.0,6.0,39.0,low,high-low,22.0,rod_fixing,rod_fixing,1.0,222.99999999813733,1562173964377.0,1562173964154.0,BLIND,39.0,11.0 22.0,229.0
3204,11.0,765963.0,6.0,39.0,low,high-low,22.0,rod_fixing,rod_fixing,1.0,217.00000017881396,1562173964601.0,1562173964383.0,BLIND,39.0,11.0 22.0,245.0
43304,3.0,765965.0,2.5,39.0,low,low-high,11.0,rod_fixing,rod_fixing,1.0,165.95499997492882,1562173405160.0,1562173404993.0,BLIND,39.0,3.0 11.0,170.0
43305,3.0,765965.0,2.5,39.0,low,low-high,11.0,rod_fixing,rod_fixing,1.0,137.74500001454726,1562173405302.0,1562173405163.0,BLIND,39.0,3.0 11.0,143.0
43306,3.0,765965.0,2.5,39.0,low,low-high,11.0,rod_fixing,rod_fixing,1.0,121.82000000029802,1562173405428.0,1562173405306.0,BLIND,39.0,3.0 11.0,126.0
43307,3.0,765965.0,2.5,39.0,low,low-high,11.0,rod_fixing,rod_fixing,1.0,126.68500002473593,1562173405559.0,1562173405432.0,BLIND,39.0,3.0 11.0,130.0
43308,3.0,765965.0,2.5,39.0,low,low-high,11.0,rod_fixing,rod_fixing,1.0,196.89500000094998,1562173405760.0,1562173405562.0,BLIND,39.0,3.0 11.0,201.0
43309,3.0,765965.0,2.5,39.0,low,low-high,11.0,rod_fixing,rod_fixing,1.0,125.77499996405096,1562173405889.0,1562173405763.0,BLIND,39.0,3.0 11.0,213.0
43627,7.0,765965.0,2.5,39.0,low,low-high,11.0,rod_fixing,rod_fixing,1.0,149.98000004561618,1562173457432.0,1562173457281.0,BLIND,39.0,7.0 11.0,154.0
43628,7.0,765965.0,2.5,39.0,low,low-high,11.0,rod_fixing,rod_fixing,1.0,151.37999999569732,1562173457587.0,1562173457435.0,BLIND,39.0,7.0 11.0,156.0
43629,7.0,765965.0,2.5,39.0,low,low-high,11.0,rod_fixing,rod_fixing,1.0,143.52499996311963,1562173457735.0,1562173457591.0,BLIND,39.0,7.0 11.0,147.0
43630,7.0,765965.0,2.5,39.0,low,low-high,11.0,rod_fixing,rod_fixing,1.0,152.35500002745542,1562173457891.0,1562173457738.0,BLIND,39.0,7.0 11.0,156.0
43631,7.0,765965.0,2.5,39.0,low,low-high,11.0,rod_fixing,rod_fixing,1.0,161.04000003542748,1562173458056.0,1562173457894.0,BLIND,39.0,7.0 11.0,168.0
43632,7.0,765965.0,2.5,39.0,low,low-high,11.0,rod_fixing,rod_fixing,1.0,151.1499999905936,1562173458213.0,1562173458062.0,BLIND,39.0,7.0 11.0,155.0
43633,7.0,765965.0,2.5,39.0,low,low-high,11.0,rod_fixing,rod_fixing,1.0,159.35999999055642,1562173458377.0,1562173458217.0,BLIND,39.0,7.0 11.0,172.0
43877,11.0,765965.0,5.1,39.0,low,low-high,11.0,rod_fixing,rod_fixing,1.0,167.1100000385195,1562173509500.0,1562173509333.0,BLIND,39.0,11.0 11.0,172.0
43878,11.0,765965.0,5.1,39.0,low,low-high,11.0,rod_fixing,rod_fixing,1.0,140.6499999575317,1562173509646.0,1562173509505.0,BLIND,39.0,11.0 11.0,144.0
43879,11.0,765965.0,5.1,39.0,low,low-high,11.0,rod_fixing,rod_fixing,1.0,135.19999996060506,1562173509785.0,1562173509649.0,BLIND,39.0,11.0 11.0,139.0
43880,11.0,765965.0,5.1,39.0,low,low-high,11.0,rod_fixing,rod_fixing,1.0,145.16499999444932,1562173509933.0,1562173509788.0,BLIND,39.0,11.0 11.0,149.0
43881,11.0,765965.0,5.1,39.0,low,low-high,11.0,rod_fixing,rod_fixing,1.0,140.3400000417605,1562173510078.0,1562173509937.0,BLIND,39.0,11.0 11.0,145.0
43882,11.0,765965.0,5.1,39.0,low,low-high,11.0,rod_fixing,rod_fixing,1.0,149.49500001966953,1562173510232.0,1562173510082.0,BLIND,39.0,11.0 11.0,154.0
43883,11.0,765965.0,5.1,39.0,low,low-high,11.0,rod_fixing,rod_fixing,1.0,139.9099999689497,1562173510376.0,1562173510236.0,BLIND,39.0,11.0 11.0,152.0
44254,4.0,765965.0,5.1,39.0,low,low-high,21.0,rod_fixing,rod_fixing,1.0,155.0350000034086,1562173584027.0,1562173583871.0,BLIND,39.0,4.0 21.0,158.0
44255,4.0,765965.0,5.1,39.0,low,low-high,21.0,rod_fixing,rod_fixing,1.0,155.36999999312684,1562173584185.0,1562173584029.0,BLIND,39.0,4.0 21.0,157.0
44256,4.0,765965.0,5.1,39.0,low,low-high,21.0,rod_fixing,rod_fixing,1.0,139.09000001149252,1562173584326.0,1562173584186.0,BLIND,39.0,4.0 21.0,143.0
44257,4.0,765965.0,5.1,39.0,low,low-high,21.0,rod_fixing,rod_fixing,1.0,64.55000001005828,1562173584394.0,1562173584329.0,BLIND,39.0,4.0 21.0,67.0
44258,4.0,765965.0,5.1,39.0,low,low-high,21.0,rod_fixing,rod_fixing,1.0,118.09000000357628,1562173584514.0,1562173584396.0,BLIND,39.0,4.0 21.0,121.0
44259,4.0,765965.0,5.1,39.0,low,low-high,21.0,rod_fixing,rod_fixing,1.0,402.364999987185,1562173584920.0,1562173584517.0,BLIND,39.0,4.0 21.0,406.0
44260,4.0,765965.0,5.1,39.0,low,low-high,21.0,rod_fixing,rod_fixing,1.0,232.03999997349456,1562173585156.0,1562173584923.0,BLIND,39.0,4.0 21.0,245.0
44541,8.0,765965.0,5.1,39.0,low,low-high,21.0,rod_fixing,rod_fixing,1.0,183.1900000106544,1562173636231.0,1562173636048.0,BLIND,39.0,8.0 21.0,187.0
44542,8.0,765965.0,5.1,39.0,low,low-high,21.0,rod_fixing,rod_fixing,1.0,120.30999996932225,1562173636356.0,1562173636235.0,BLIND,39.0,8.0 21.0,124.0
44543,8.0,765965.0,5.1,39.0,low,low-high,21.0,rod_fixing,rod_fixing,1.0,153.60499999951568,1562173636514.0,1562173636359.0,BLIND,39.0,8.0 21.0,158.0
44544,8.0,765965.0,5.1,39.0,low,low-high,21.0,rod_fixing,rod_fixing,1.0,126.25000003026798,1562173636644.0,1562173636517.0,BLIND,39.0,8.0 21.0,132.0
44545,8.0,765965.0,5.1,39.0,low,low-high,21.0,rod_fixing,rod_fixing,1.0,139.885000011418,1562173636789.0,1562173636649.0,BLIND,39.0,8.0 21.0,144.0
44546,8.0,765965.0,5.1,39.0,low,low-high,21.0,rod_fixing,rod_fixing,1.0,227.4400000460446,1562173637021.0,1562173636793.0,BLIND,39.0,8.0 21.0,232.0
44547,8.0,765965.0,5.1,39.0,low,low-high,21.0,rod_fixing,rod_fixing,1.0,150.72500001406297,1562173637177.0,1562173637025.0,BLIND,39.0,8.0 21.0,162.0
44763,11.0,765965.0,0.4,39.0,low,low-high,21.0,rod_fixing,rod_fixing,1.0,194.8400000110269,1562173675611.0,1562173675415.0,BLIND,39.0,11.0 21.0,200.0
44764,11.0,765965.0,0.4,39.0,low,low-high,21.0,rod_fixing,rod_fixing,1.0,140.69499995093793,1562173675756.0,1562173675615.0,BLIND,39.0,11.0 21.0,145.0
44765,11.0,765965.0,0.4,39.0,low,low-high,21.0,rod_fixing,rod_fixing,1.0,149.15500005008653,1562173675910.0,1562173675760.0,BLIND,39.0,11.0 21.0,154.0
44766,11.0,765965.0,0.4,39.0,low,low-high,21.0,rod_fixing,rod_fixing,1.0,150.13500000350174,1562173676065.0,1562173675914.0,BLIND,39.0,11.0 21.0,155.0
44767,11.0,765965.0,0.4,39.0,low,low-high,21.0,rod_fixing,rod_fixing,1.0,140.33000002382323,1562173676211.0,1562173676069.0,BLIND,39.0,11.0 21.0,146.0
44768,11.0,765965.0,0.4,39.0,low,low-high,21.0,rod_fixing,rod_fixing,1.0,131.8500000052154,1562173676348.0,1562173676215.0,BLIND,39.0,11.0 21.0,137.0
44769,11.0,765965.0,0.4,39.0,low,low-high,21.0,rod_fixing,rod_fixing,1.0,150.87000001221898,1562173676504.0,1562173676352.0,BLIND,39.0,11.0 21.0,169.0
45060,3.0,765965.0,2.5,39.0,high,low-high,12.0,rod_fixing,rod_fixing,1.0,221.35500004515046,1562173765461.0,1562173765239.0,BLIND,39.0,3.0 12.0,225.0
45061,3.0,765965.0,2.5,39.0,high,low-high,12.0,rod_fixing,rod_fixing,1.0,147.33499998692426,1562173765611.0,1562173765464.0,BLIND,39.0,3.0 12.0,152.0
45062,3.0,765965.0,2.5,39.0,high,low-high,12.0,rod_fixing,rod_fixing,1.0,113.21500001940876,1562173765730.0,1562173765616.0,BLIND,39.0,3.0 12.0,119.0
45063,3.0,765965.0,2.5,39.0,high,low-high,12.0,rod_fixing,rod_fixing,1.0,137.42500002263114,1562173765873.0,1562173765735.0,BLIND,39.0,3.0 12.0,143.0
45064,3.0,765965.0,2.5,39.0,high,low-high,12.0,rod_fixing,rod_fixing,1.0,140.369999979157,1562173766019.0,1562173765878.0,BLIND,39.0,3.0 12.0,144.0
45065,3.0,765965.0,2.5,39.0,high,low-high,12.0,rod_fixing,rod_fixing,1.0,123.75999998766927,1562173766146.0,1562173766022.0,BLIND,39.0,3.0 12.0,129.0
45066,3.0,765965.0,2.5,39.0,high,low-high,12.0,rod_fixing,rod_fixing,1.0,130.23999996948987,1562173766282.0,1562173766151.0,BLIND,39.0,3.0 12.0,148.0
45362,7.0,765965.0,2.5,39.0,high,low-high,12.0,rod_fixing,rod_fixing,1.0,158.96500000962988,1562173817444.0,1562173817284.0,BLIND,39.0,7.0 12.0,165.0
45363,7.0,765965.0,2.5,39.0,high,low-high,12.0,rod_fixing,rod_fixing,1.0,160.51000001607463,1562173817610.0,1562173817449.0,BLIND,39.0,7.0 12.0,167.0
45364,7.0,765965.0,2.5,39.0,high,low-high,12.0,rod_fixing,rod_fixing,1.0,153.0999999959022,1562173817770.0,1562173817616.0,BLIND,39.0,7.0 12.0,159.0
45365,7.0,765965.0,2.5,39.0,high,low-high,12.0,rod_fixing,rod_fixing,1.0,139.71000001765788,1562173817916.0,1562173817775.0,BLIND,39.0,7.0 12.0,145.0
45366,7.0,765965.0,2.5,39.0,high,low-high,12.0,rod_fixing,rod_fixing,1.0,150.7249999558553,1562173818071.0,1562173817920.0,BLIND,39.0,7.0 12.0,157.0
45367,7.0,765965.0,2.5,39.0,high,low-high,12.0,rod_fixing,rod_fixing,1.0,156.97999997064468,1562173818235.0,1562173818077.0,BLIND,39.0,7.0 12.0,163.0
45368,7.0,765965.0,2.5,39.0,high,low-high,12.0,rod_fixing,rod_fixing,1.0,147.78499997919425,1562173818388.0,1562173818240.0,BLIND,39.0,7.0 12.0,167.0
45659,11.0,765965.0,5.1,39.0,high,low-high,12.0,rod_fixing,rod_fixing,1.0,176.71000002883372,1562173869965.0,1562173869787.0,BLIND,39.0,11.0 12.0,183.0
45660,11.0,765965.0,5.1,39.0,high,low-high,12.0,rod_fixing,rod_fixing,1.0,162.575000023935,1562173870133.0,1562173869970.0,BLIND,39.0,11.0 12.0,167.0
45661,11.0,765965.0,5.1,39.0,high,low-high,12.0,rod_fixing,rod_fixing,1.0,160.2600000333041,1562173870298.0,1562173870137.0,BLIND,39.0,11.0 12.0,167.0
45662,11.0,765965.0,5.1,39.0,high,low-high,12.0,rod_fixing,rod_fixing,1.0,163.02999999606982,1562173870467.0,1562173870304.0,BLIND,39.0,11.0 12.0,167.0
45663,11.0,765965.0,5.1,39.0,high,low-high,12.0,rod_fixing,rod_fixing,1.0,164.18000002158806,1562173870636.0,1562173870471.0,BLIND,39.0,11.0 12.0,171.0
45664,11.0,765965.0,5.1,39.0,high,low-high,12.0,rod_fixing,rod_fixing,1.0,163.24500000337142,1562173870806.0,1562173870642.0,BLIND,39.0,11.0 12.0,169.0
45665,11.0,765965.0,5.1,39.0,high,low-high,12.0,rod_fixing,rod_fixing,1.0,172.88000002736226,1562173870985.0,1562173870811.0,BLIND,39.0,11.0 12.0,192.0
46025,4.0,765965.0,5.1,40.0,high,low-high,22.0,rod_fixing,rod_fixing,1.0,60.410000034607954,1562174062449.0,1562174062388.0,BLIND,40.0,4.0 22.0,169.0
46026,4.0,765965.0,5.1,40.0,high,low-high,22.0,rod_fixing,rod_fixing,1.0,61.87999999383465,1562174062619.0,1562174062557.0,BLIND,40.0,4.0 22.0,171.0
46027,4.0,765965.0,5.1,40.0,high,low-high,22.0,rod_fixing,rod_fixing,1.0,56.15999997826293,1562174062785.0,1562174062728.0,BLIND,40.0,4.0 22.0,165.0
46028,4.0,765965.0,5.1,40.0,high,low-high,22.0,rod_fixing,rod_fixing,1.0,63.550000020768486,1562174062957.0,1562174062893.0,BLIND,40.0,4.0 22.0,172.0
46029,4.0,765965.0,5.1,40.0,high,low-high,22.0,rod_fixing,rod_fixing,1.0,62.61999998241663,1562174063128.0,1562174063065.0,BLIND,40.0,4.0 22.0,171.0
46030,4.0,765965.0,5.1,,high,low-high,22.0,rod_fixing,rod_fixing,1.0,,,1562174063236.0,BLIND,,4.0 22.0,143.0
46034,4.0,765965.0,5.1,39.0,high,low-high,22.0,rod_fixing,rod_fixing,1.0,615.5600000056438,1562174063995.0,1562174063379.0,BLIND,39.0,4.0 22.0,621.0
46035,4.0,765965.0,5.1,39.0,high,low-high,22.0,rod_fixing,rod_fixing,1.0,161.22499998891726,1562174064162.0,1562174064000.0,BLIND,39.0,4.0 22.0,167.0
46036,4.0,765965.0,5.1,39.0,high,low-high,22.0,rod_fixing,rod_fixing,1.0,126.7249999800697,1562174064294.0,1562174064167.0,BLIND,39.0,4.0 22.0,132.0
46037,4.0,765965.0,5.1,39.0,high,low-high,22.0,rod_fixing,rod_fixing,1.0,130.46499999472871,1562174064430.0,1562174064299.0,BLIND,39.0,4.0 22.0,134.0
46038,4.0,765965.0,5.1,39.0,high,low-high,22.0,rod_fixing,rod_fixing,1.0,130.9999999939464,1562174064565.0,1562174064433.0,BLIND,39.0,4.0 22.0,135.0
46039,4.0,765965.0,5.1,39.0,high,low-high,22.0,rod_fixing,rod_fixing,1.0,132.3199999751523,1562174064701.0,1562174064568.0,BLIND,39.0,4.0 22.0,136.0
46040,4.0,765965.0,5.1,39.0,high,low-high,22.0,rod_fixing,rod_fixing,1.0,137.6499999896623,1562174064842.0,1562174064704.0,BLIND,39.0,4.0 22.0,141.0
46348,8.0,765965.0,5.1,39.0,high,low-high,22.0,rod_fixing,rod_fixing,1.0,164.85500003909692,1562174116808.0,1562174116642.0,BLIND,39.0,8.0 22.0,173.0
46349,8.0,765965.0,5.1,39.0,high,low-high,22.0,rod_fixing,rod_fixing,1.0,139.39000002574176,1562174116955.0,1562174116815.0,BLIND,39.0,8.0 22.0,144.0
46350,8.0,765965.0,5.1,39.0,high,low-high,22.0,rod_fixing,rod_fixing,1.0,156.06000000843778,1562174117115.0,1562174116959.0,BLIND,39.0,8.0 22.0,161.0
46351,8.0,765965.0,5.1,39.0,high,low-high,22.0,rod_fixing,rod_fixing,1.0,151.27500001108274,1562174117271.0,1562174117120.0,BLIND,39.0,8.0 22.0,158.0
46352,8.0,765965.0,5.1,39.0,high,low-high,22.0,rod_fixing,rod_fixing,1.0,161.9100000243634,1562174117440.0,1562174117278.0,BLIND,39.0,8.0 22.0,167.0
46353,8.0,765965.0,5.1,39.0,high,low-high,22.0,rod_fixing,rod_fixing,1.0,166.83000000193715,1562174117612.0,1562174117445.0,BLIND,39.0,8.0 22.0,174.0
46354,8.0,765965.0,5.1,39.0,high,low-high,22.0,rod_fixing,rod_fixing,1.0,160.22499999962747,1562174117780.0,1562174117619.0,BLIND,39.0,8.0 22.0,181.0
46576,11.0,765965.0,0.4,39.0,high,low-high,22.0,rod_fixing,rod_fixing,1.0,201.92500000121072,1562174155773.0,1562174155571.0,BLIND,39.0,11.0 22.0,207.0
46577,11.0,765965.0,0.4,39.0,high,low-high,22.0,rod_fixing,rod_fixing,1.0,163.34999998798594,1562174155942.0,1562174155778.0,BLIND,39.0,11.0 22.0,171.0
46578,11.0,765965.0,0.4,39.0,high,low-high,22.0,rod_fixing,rod_fixing,1.0,143.92000000225383,1562174156094.0,1562174155949.0,BLIND,39.0,11.0 22.0,151.0
46579,11.0,765965.0,0.4,39.0,high,low-high,22.0,rod_fixing,rod_fixing,1.0,136.13499997882172,1562174156237.0,1562174156100.0,BLIND,39.0,11.0 22.0,141.0
46580,11.0,765965.0,0.4,39.0,high,low-high,22.0,rod_fixing,rod_fixing,1.0,159.48500001104549,1562174156401.0,1562174156241.0,BLIND,39.0,11.0 22.0,164.0
46581,11.0,765965.0,0.4,39.0,high,low-high,22.0,rod_fixing,rod_fixing,1.0,151.11500001512468,1562174156557.0,1562174156405.0,BLIND,39.0,11.0 22.0,158.0
46582,11.0,765965.0,0.4,39.0,high,low-high,22.0,rod_fixing,rod_fixing,1.0,142.79000001261008,1562174156707.0,1562174156563.0,BLIND,39.0,11.0 22.0,166.0
46031,4.0,765965.0,5.1,,high,low-high,22.0,rod_fixing,rod_fixing,1.0,,,,BLIND,,4.0 22.0,
46032,4.0,765965.0,5.1,,high,low-high,22.0,rod_fixing,rod_fixing,1.0,,,,BLIND,,4.0 22.0,
46033,4.0,765965.0,5.1,,high,low-high,22.0,rod_fixing,rod_fixing,1.0,,,,BLIND,,4.0 22.0,
3540,3.0,765970.0,1.0,39.0,high,high-low,11.0,rod_fixing,rod_fixing,1.0,194.45499998983001,1562173939553.0,1562173939358.0,BLIND,39.0,3.0 11.0,199.0
3541,3.0,765970.0,1.0,39.0,high,high-low,11.0,rod_fixing,rod_fixing,1.0,163.16000002552755,1562173939721.0,1562173939557.0,BLIND,39.0,3.0 11.0,167.0
3542,3.0,765970.0,1.0,39.0,high,high-low,11.0,rod_fixing,rod_fixing,1.0,156.26499999780208,1562173939881.0,1562173939724.0,BLIND,39.0,3.0 11.0,160.0
3543,3.0,765970.0,1.0,39.0,high,high-low,11.0,rod_fixing,rod_fixing,1.0,204.200000007404,1562173940089.0,1562173939884.0,BLIND,39.0,3.0 11.0,208.0
3544,3.0,765970.0,1.0,39.0,high,high-low,11.0,rod_fixing,rod_fixing,1.0,180.22000000928531,1562173940273.0,1562173940092.0,BLIND,39.0,3.0 11.0,184.0
3545,3.0,765970.0,1.0,39.0,high,high-low,11.0,rod_fixing,rod_fixing,1.0,147.79499999713153,1562173940425.0,1562173940276.0,BLIND,39.0,3.0 11.0,152.0
3546,3.0,765970.0,1.0,39.0,high,high-low,11.0,rod_fixing,rod_fixing,1.0,147.22499999334102,1562173940577.0,1562173940428.0,BLIND,39.0,3.0 11.0,164.0
3842,7.0,765970.0,6.0,39.0,high,high-low,11.0,rod_fixing,rod_fixing,1.0,205.27000000583942,1562173991001.0,1562173990795.0,BLIND,39.0,7.0 11.0,208.0
3843,7.0,765970.0,6.0,39.0,high,high-low,11.0,rod_fixing,rod_fixing,1.0,205.2550000080373,1562173991209.0,1562173991003.0,BLIND,39.0,7.0 11.0,208.0
3844,7.0,765970.0,6.0,39.0,high,high-low,11.0,rod_fixing,rod_fixing,1.0,181.90500000491738,1562173991393.0,1562173991211.0,BLIND,39.0,7.0 11.0,184.0
3845,7.0,765970.0,6.0,39.0,high,high-low,11.0,rod_fixing,rod_fixing,1.0,189.16000000899655,1562173991585.0,1562173991395.0,BLIND,39.0,7.0 11.0,192.0
3846,7.0,765970.0,6.0,39.0,high,high-low,11.0,rod_fixing,rod_fixing,1.0,165.05500001949258,1562173991753.0,1562173991587.0,BLIND,39.0,7.0 11.0,168.0
3847,7.0,765970.0,6.0,39.0,high,high-low,11.0,rod_fixing,rod_fixing,1.0,141.81500000995584,1562173991897.0,1562173991755.0,BLIND,39.0,7.0 11.0,144.0
3848,7.0,765970.0,6.0,39.0,high,high-low,11.0,rod_fixing,rod_fixing,1.0,189.1049999976531,1562173992089.0,1562173991899.0,BLIND,39.0,7.0 11.0,202.0
4114,11.0,765970.0,0.1,39.0,high,high-low,11.0,rod_fixing,rod_fixing,1.0,194.9449999956414,1562174043776.0,1562174043580.0,BLIND,39.0,11.0 11.0,198.0
4115,11.0,765970.0,0.1,39.0,high,high-low,11.0,rod_fixing,rod_fixing,1.0,197.08500002161597,1562174043976.0,1562174043778.0,BLIND,39.0,11.0 11.0,200.0
4116,11.0,765970.0,0.1,39.0,high,high-low,11.0,rod_fixing,rod_fixing,1.0,213.06499998900108,1562174044192.0,1562174043978.0,BLIND,39.0,11.0 11.0,216.0
4117,11.0,765970.0,0.1,39.0,high,high-low,11.0,rod_fixing,rod_fixing,1.0,213.0899999756366,1562174044408.0,1562174044194.0,BLIND,39.0,11.0 11.0,217.0
4466,4.0,765970.0,6.0,39.0,high,high-low,21.0,rod_fixing,rod_fixing,1.0,209.95000001857986,1562174123879.0,1562174123669.0,BLIND,39.0,4.0 21.0,215.0
4467,4.0,765970.0,6.0,39.0,high,high-low,21.0,rod_fixing,rod_fixing,1.0,242.3150000104215,1562174124127.0,1562174123884.0,BLIND,39.0,4.0 21.0,247.0
4468,4.0,765970.0,6.0,39.0,high,high-low,21.0,rod_fixing,rod_fixing,1.0,195.24500000989065,1562174124327.0,1562174124131.0,BLIND,39.0,4.0 21.0,201.0
4469,4.0,765970.0,6.0,39.0,high,high-low,21.0,rod_fixing,rod_fixing,1.0,258.89000002644025,1562174124591.0,1562174124332.0,BLIND,39.0,4.0 21.0,265.0
4470,4.0,765970.0,6.0,39.0,high,high-low,21.0,rod_fixing,rod_fixing,1.0,249.5300000009593,1562174124847.0,1562174124597.0,BLIND,39.0,4.0 21.0,255.0
4471,4.0,765970.0,6.0,39.0,high,high-low,21.0,rod_fixing,rod_fixing,1.0,282.76000000187196,1562174125135.0,1562174124852.0,BLIND,39.0,4.0 21.0,288.0
4472,4.0,765970.0,6.0,39.0,high,high-low,21.0,rod_fixing,rod_fixing,1.0,331.02000001235865,1562174125471.0,1562174125140.0,BLIND,39.0,4.0 21.0,350.0
4724,8.0,765970.0,1.0,39.0,high,high-low,21.0,rod_fixing,rod_fixing,1.0,161.46499998285438,1562174175966.0,1562174175804.0,BLIND,39.0,8.0 21.0,167.0
4725,8.0,765970.0,1.0,39.0,high,high-low,21.0,rod_fixing,rod_fixing,1.0,194.68500002403744,1562174176166.0,1562174175971.0,BLIND,39.0,8.0 21.0,200.0
4726,8.0,765970.0,1.0,39.0,high,high-low,21.0,rod_fixing,rod_fixing,1.0,218.86500000255185,1562174176390.0,1562174176171.0,BLIND,39.0,8.0 21.0,224.0
4727,8.0,765970.0,1.0,39.0,high,high-low,21.0,rod_fixing,rod_fixing,1.0,154.6950000047218,1562174176550.0,1562174176395.0,BLIND,39.0,8.0 21.0,160.0
4728,8.0,765970.0,1.0,39.0,high,high-low,21.0,rod_fixing,rod_fixing,1.0,170.92999999294992,1562174176726.0,1562174176555.0,BLIND,39.0,8.0 21.0,176.0
4729,8.0,765970.0,1.0,39.0,high,high-low,21.0,rod_fixing,rod_fixing,1.0,178.64000002737157,1562174176910.0,1562174176731.0,BLIND,39.0,8.0 21.0,184.0
4730,8.0,765970.0,1.0,39.0,high,high-low,21.0,rod_fixing,rod_fixing,1.0,170.81000001053326,1562174177086.0,1562174176915.0,BLIND,39.0,8.0 21.0,191.0
4917,11.0,765970.0,6.0,39.0,high,high-low,21.0,rod_fixing,rod_fixing,1.0,193.7399999878835,1562174215062.0,1562174214867.0,BLIND,39.0,11.0 21.0,200.0
4918,11.0,765970.0,6.0,39.0,high,high-low,21.0,rod_fixing,rod_fixing,1.0,242.2950000036508,1562174215310.0,1562174215067.0,BLIND,39.0,11.0 21.0,248.0
4919,11.0,765970.0,6.0,39.0,high,high-low,21.0,rod_fixing,rod_fixing,1.0,217.55999999004416,1562174215534.0,1562174215315.0,BLIND,39.0,11.0 21.0,223.0
4920,11.0,765970.0,6.0,39.0,high,high-low,21.0,rod_fixing,rod_fixing,1.0,274.4200000015553,1562174215814.0,1562174215538.0,BLIND,39.0,11.0 21.0,282.0
4921,11.0,765970.0,6.0,39.0,high,high-low,21.0,rod_fixing,rod_fixing,1.0,193.1850000109989,1562174216014.0,1562174215820.0,BLIND,39.0,11.0 21.0,199.0
4922,11.0,765970.0,6.0,39.0,high,high-low,21.0,rod_fixing,rod_fixing,1.0,202.02999998582527,1562174216222.0,1562174216019.0,BLIND,39.0,11.0 21.0,207.0
4923,11.0,765970.0,6.0,39.0,high,high-low,21.0,rod_fixing,rod_fixing,1.0,235.04499997943643,1562174216462.0,1562174216226.0,BLIND,39.0,11.0 21.0,258.0
5203,3.0,765970.0,1.0,39.0,low,high-low,12.0,rod_fixing,rod_fixing,1.0,168.6300000001211,1562174354989.0,1562174354819.0,BLIND,39.0,3.0 12.0,175.0
5204,3.0,765970.0,1.0,39.0,low,high-low,12.0,rod_fixing,rod_fixing,1.0,170.42000000947158,1562174355165.0,1562174354994.0,BLIND,39.0,3.0 12.0,176.0
5205,3.0,765970.0,1.0,39.0,low,high-low,12.0,rod_fixing,rod_fixing,1.0,170.16500001773238,1562174355340.0,1562174355170.0,BLIND,39.0,3.0 12.0,176.0
5206,3.0,765970.0,1.0,39.0,low,high-low,12.0,rod_fixing,rod_fixing,1.0,153.22499998728745,1562174355500.0,1562174355346.0,BLIND,39.0,3.0 12.0,158.0
5207,3.0,765970.0,1.0,39.0,low,high-low,12.0,rod_fixing,rod_fixing,1.0,172.10500000510362,1562174355676.0,1562174355504.0,BLIND,39.0,3.0 12.0,176.0
5208,3.0,765970.0,1.0,39.0,low,high-low,12.0,rod_fixing,rod_fixing,1.0,148.0100000044331,1562174355828.0,1562174355680.0,BLIND,39.0,3.0 12.0,154.0
5209,3.0,765970.0,1.0,39.0,low,high-low,12.0,rod_fixing,rod_fixing,1.0,146.20999997714534,1562174355980.0,1562174355834.0,BLIND,39.0,3.0 12.0,170.0
5480,7.0,765970.0,6.0,39.0,low,high-low,12.0,rod_fixing,rod_fixing,1.0,177.72500001592564,1562174407148.0,1562174406969.0,BLIND,39.0,7.0 12.0,184.0
5481,7.0,765970.0,6.0,39.0,low,high-low,12.0,rod_fixing,rod_fixing,1.0,194.0699999977369,1562174407348.0,1562174407153.0,BLIND,39.0,7.0 12.0,200.0
5482,7.0,765970.0,6.0,39.0,low,high-low,12.0,rod_fixing,rod_fixing,1.0,178.34499999298714,1562174407532.0,1562174407353.0,BLIND,39.0,7.0 12.0,184.0
5483,7.0,765970.0,6.0,39.0,low,high-low,12.0,rod_fixing,rod_fixing,1.0,178.40000000433062,1562174407716.0,1562174407537.0,BLIND,39.0,7.0 12.0,183.0
5484,7.0,765970.0,6.0,39.0,low,high-low,12.0,rod_fixing,rod_fixing,1.0,179.86999999266118,1562174407900.0,1562174407720.0,BLIND,39.0,7.0 12.0,183.0
5485,7.0,765970.0,6.0,39.0,low,high-low,12.0,rod_fixing,rod_fixing,1.0,180.0700000021607,1562174408084.0,1562174407903.0,BLIND,39.0,7.0 12.0,362.0
5745,11.0,765970.0,0.1,39.0,low,high-low,12.0,rod_fixing,rod_fixing,1.0,209.77500002481972,1562174459708.0,1562174459497.0,BLIND,39.0,11.0 12.0,217.0
5746,11.0,765970.0,0.1,39.0,low,high-low,12.0,rod_fixing,rod_fixing,1.0,248.98500001290813,1562174459964.0,1562174459714.0,BLIND,39.0,11.0 12.0,256.0
5747,11.0,765970.0,0.1,39.0,low,high-low,12.0,rod_fixing,rod_fixing,1.0,209.45500000379982,1562174460180.0,1562174459970.0,BLIND,39.0,11.0 12.0,216.0
5748,11.0,765970.0,0.1,39.0,low,high-low,12.0,rod_fixing,rod_fixing,1.0,201.5149999933783,1562174460388.0,1562174460186.0,BLIND,39.0,11.0 12.0,207.0
5749,11.0,765970.0,0.1,39.0,low,high-low,12.0,rod_fixing,rod_fixing,1.0,201.5499999979511,1562174460596.0,1562174460393.0,BLIND,39.0,11.0 12.0,209.0
5750,11.0,765970.0,0.1,39.0,low,high-low,12.0,rod_fixing,rod_fixing,1.0,201.46000001113862,1562174460804.0,1562174460602.0,BLIND,39.0,11.0 12.0,207.0
5751,11.0,765970.0,0.1,39.0,low,high-low,12.0,rod_fixing,rod_fixing,1.0,201.7350000096485,1562174461012.0,1562174460809.0,BLIND,39.0,11.0 12.0,228.0
6083,4.0,765970.0,6.0,39.0,low,high-low,22.0,rod_fixing,rod_fixing,1.0,176.2999999918975,1562174530835.0,1562174530658.0,BLIND,39.0,4.0 22.0,183.0
6084,4.0,765970.0,6.0,39.0,low,high-low,22.0,rod_fixing,rod_fixing,1.0,201.600000000326,1562174531043.0,1562174530841.0,BLIND,39.0,4.0 22.0,208.0
6085,4.0,765970.0,6.0,39.0,low,high-low,22.0,rod_fixing,rod_fixing,1.0,161.78999998373908,1562174531211.0,1562174531049.0,BLIND,39.0,4.0 22.0,168.0
6086,4.0,765970.0,6.0,39.0,low,high-low,22.0,rod_fixing,rod_fixing,1.0,177.04499998944812,1562174531395.0,1562174531217.0,BLIND,39.0,4.0 22.0,184.0
6087,4.0,765970.0,6.0,39.0,low,high-low,22.0,rod_fixing,rod_fixing,1.0,168.89500000979749,1562174531571.0,1562174531401.0,BLIND,39.0,4.0 22.0,175.0
6088,4.0,765970.0,6.0,39.0,low,high-low,22.0,rod_fixing,rod_fixing,1.0,161.76000001723878,1562174531739.0,1562174531576.0,BLIND,39.0,4.0 22.0,169.0
6089,4.0,765970.0,6.0,39.0,low,high-low,22.0,rod_fixing,rod_fixing,1.0,160.46000001369976,1562174531907.0,1562174531745.0,BLIND,39.0,4.0 22.0,190.0
6352,8.0,765970.0,1.0,39.0,low,high-low,22.0,rod_fixing,rod_fixing,1.0,201.09499999671246,1562174583234.0,1562174583033.0,BLIND,39.0,8.0 22.0,207.0
6353,8.0,765970.0,1.0,39.0,low,high-low,22.0,rod_fixing,rod_fixing,1.0,177.51999999745752,1562174583418.0,1562174583240.0,BLIND,39.0,8.0 22.0,185.0
6354,8.0,765970.0,1.0,39.0,low,high-low,22.0,rod_fixing,rod_fixing,1.0,160.05999999470075,1562174583586.0,1562174583425.0,BLIND,39.0,8.0 22.0,167.0
6355,8.0,765970.0,1.0,39.0,low,high-low,22.0,rod_fixing,rod_fixing,1.0,193.40499999816532,1562174583786.0,1562174583592.0,BLIND,39.0,8.0 22.0,200.0
6356,8.0,765970.0,1.0,39.0,low,high-low,22.0,rod_fixing,rod_fixing,1.0,177.33999999472874,1562174583970.0,1562174583792.0,BLIND,39.0,8.0 22.0,184.0
6357,8.0,765970.0,1.0,39.0,low,high-low,22.0,rod_fixing,rod_fixing,1.0,177.5049999996554,1562174584155.0,1562174583976.0,BLIND,39.0,8.0 22.0,185.0
6358,8.0,765970.0,1.0,39.0,low,high-low,22.0,rod_fixing,rod_fixing,1.0,161.20000000228174,1562174584322.0,1562174584161.0,BLIND,39.0,8.0 22.0,189.0
6556,11.0,765970.0,6.0,39.0,low,high-low,22.0,rod_fixing,rod_fixing,1.0,264.73499997518957,1562174622065.0,1562174621800.0,BLIND,39.0,11.0 22.0,273.0
6557,11.0,765970.0,6.0,39.0,low,high-low,22.0,rod_fixing,rod_fixing,1.0,279.67000001808634,1562174622353.0,1562174622073.0,BLIND,39.0,11.0 22.0,286.0
6558,11.0,765970.0,6.0,39.0,low,high-low,22.0,rod_fixing,rod_fixing,1.0,232.8949999937322,1562174622593.0,1562174622359.0,BLIND,39.0,11.0 22.0,242.0
6559,11.0,765970.0,6.0,39.0,low,high-low,22.0,rod_fixing,rod_fixing,1.0,223.56499999295917,1562174622825.0,1562174622601.0,BLIND,39.0,11.0 22.0,231.0
6560,11.0,765970.0,6.0,39.0,low,high-low,22.0,rod_fixing,rod_fixing,1.0,216.51500000734814,1562174623049.0,1562174622832.0,BLIND,39.0,11.0 22.0,224.0
6561,11.0,765970.0,6.0,39.0,low,high-low,22.0,rod_fixing,rod_fixing,1.0,224.78499999851917,1562174623281.0,1562174623056.0,BLIND,39.0,11.0 22.0,232.0
6562,11.0,765970.0,6.0,39.0,low,high-low,22.0,rod_fixing,rod_fixing,1.0,216.51499997824433,1562174623505.0,1562174623288.0,BLIND,39.0,11.0 22.0,244.0
6859,3.0,765973.0,0.4,39.0,high,high-low,11.0,rod_fixing,rod_fixing,1.0,238.29000000841918,1562174067130.0,1562174066891.0,BLIND,39.0,3.0 11.0,2100.0
7158,7.0,765973.0,2.5,39.0,high,high-low,11.0,rod_fixing,rod_fixing,1.0,258.339999942109,1562174119430.0,1562174119170.0,BLIND,39.0,7.0 11.0,266.0
7159,7.0,765973.0,2.5,39.0,high,high-low,11.0,rod_fixing,rod_fixing,1.0,275.1550000393763,1562174119712.0,1562174119436.0,BLIND,39.0,7.0 11.0,283.0
7160,7.0,765973.0,2.5,39.0,high,high-low,11.0,rod_fixing,rod_fixing,1.0,256.6799999913201,1562174119976.0,1562174119719.0,BLIND,39.0,7.0 11.0,264.0
7161,7.0,765973.0,2.5,39.0,high,high-low,11.0,rod_fixing,rod_fixing,1.0,255.44500001706186,1562174120239.0,1562174119983.0,BLIND,39.0,7.0 11.0,259.0
7162,7.0,765973.0,2.5,39.0,high,high-low,11.0,rod_fixing,rod_fixing,1.0,259.4299999764189,1562174120502.0,1562174120242.0,BLIND,39.0,7.0 11.0,266.0
7163,7.0,765973.0,2.5,39.0,high,high-low,11.0,rod_fixing,rod_fixing,1.0,253.38999996893108,1562174120763.0,1562174120508.0,BLIND,39.0,7.0 11.0,575.0
7446,11.0,765973.0,0.4,39.0,high,high-low,11.0,rod_fixing,rod_fixing,1.0,216.59999992698434,1562174171820.0,1562174171602.0,BLIND,39.0,11.0 11.0,225.0
7447,11.0,765973.0,0.4,39.0,high,high-low,11.0,rod_fixing,rod_fixing,1.0,255.83000003825873,1562174172084.0,1562174171827.0,BLIND,39.0,11.0 11.0,264.0
7448,11.0,765973.0,0.4,39.0,high,high-low,11.0,rod_fixing,rod_fixing,1.0,285.9199999365956,1562174172378.0,1562174172091.0,BLIND,39.0,11.0 11.0,294.0
7449,11.0,765973.0,0.4,39.0,high,high-low,11.0,rod_fixing,rod_fixing,1.0,304.17499993927777,1562174172690.0,1562174172385.0,BLIND,39.0,11.0 11.0,315.0
7450,11.0,765973.0,0.4,39.0,high,high-low,11.0,rod_fixing,rod_fixing,1.0,264.4200000213459,1562174172965.0,1562174172700.0,BLIND,39.0,11.0 11.0,270.0
7451,11.0,765973.0,0.4,39.0,high,high-low,11.0,rod_fixing,rod_fixing,1.0,263.2950000697747,1562174173234.0,1562174172970.0,BLIND,39.0,11.0 11.0,275.0
7452,11.0,765973.0,0.4,39.0,high,high-low,11.0,rod_fixing,rod_fixing,1.0,313.65000002551824,1562174173560.0,1562174173245.0,BLIND,39.0,11.0 11.0,332.0
7797,4.0,765973.0,0.4,39.0,high,high-low,21.0,rod_fixing,rod_fixing,1.0,254.98000008519742,1562174245572.0,1562174245316.0,BLIND,39.0,4.0 21.0,263.0
7798,4.0,765973.0,0.4,39.0,high,high-low,21.0,rod_fixing,rod_fixing,1.0,266.38000004459167,1562174245847.0,1562174245579.0,BLIND,39.0,4.0 21.0,278.0
7799,4.0,765973.0,0.4,39.0,high,high-low,21.0,rod_fixing,rod_fixing,1.0,276.74000000115484,1562174246134.0,1562174245857.0,BLIND,39.0,4.0 21.0,286.0
7800,4.0,765973.0,0.4,39.0,high,high-low,21.0,rod_fixing,rod_fixing,1.0,259.7200000891462,1562174246404.0,1562174246143.0,BLIND,39.0,4.0 21.0,270.0
7801,4.0,765973.0,0.4,39.0,high,high-low,21.0,rod_fixing,rod_fixing,1.0,253.4700001124293,1562174246667.0,1562174246413.0,BLIND,39.0,4.0 21.0,262.0
7802,4.0,765973.0,0.4,39.0,high,high-low,21.0,rod_fixing,rod_fixing,1.0,257.34000001102686,1562174246933.0,1562174246675.0,BLIND,39.0,4.0 21.0,265.0
7803,4.0,765973.0,0.4,39.0,high,high-low,21.0,rod_fixing,rod_fixing,1.0,276.07000002171844,1562174247217.0,1562174246940.0,BLIND,39.0,4.0 21.0,311.0
8074,8.0,765973.0,2.5,39.0,high,high-low,21.0,rod_fixing,rod_fixing,1.0,215.5849999981001,1562174297875.0,1562174297659.0,BLIND,39.0,8.0 21.0,225.0
8075,8.0,765973.0,2.5,39.0,high,high-low,21.0,rod_fixing,rod_fixing,1.0,232.20500000752511,1562174298118.0,1562174297884.0,BLIND,39.0,8.0 21.0,241.0
8076,8.0,765973.0,2.5,39.0,high,high-low,21.0,rod_fixing,rod_fixing,1.0,246.69000005815175,1562174298373.0,1562174298125.0,BLIND,39.0,8.0 21.0,256.0
8077,8.0,765973.0,2.5,39.0,high,high-low,21.0,rod_fixing,rod_fixing,1.0,242.4149999860674,1562174298624.0,1562174298381.0,BLIND,39.0,8.0 21.0,252.0
8078,8.0,765973.0,2.5,39.0,high,high-low,21.0,rod_fixing,rod_fixing,1.0,238.69000002741814,1562174298873.0,1562174298633.0,BLIND,39.0,8.0 21.0,249.0
8079,8.0,765973.0,2.5,39.0,high,high-low,21.0,rod_fixing,rod_fixing,1.0,234.0649999678135,1562174299117.0,1562174298882.0,BLIND,39.0,8.0 21.0,244.0
8080,8.0,765973.0,2.5,39.0,high,high-low,21.0,rod_fixing,rod_fixing,1.0,256.37499999720603,1562174299384.0,1562174299126.0,BLIND,39.0,8.0 21.0,286.0
8276,11.0,765973.0,0.4,39.0,high,high-low,21.0,rod_fixing,rod_fixing,1.0,184.96500002220276,1562174337202.0,1562174337016.0,BLIND,39.0,11.0 21.0,194.0
8277,11.0,765973.0,0.4,39.0,high,high-low,21.0,rod_fixing,rod_fixing,1.0,187.8199999919161,1562174337399.0,1562174337210.0,BLIND,39.0,11.0 21.0,197.0
8278,11.0,765973.0,0.4,39.0,high,high-low,21.0,rod_fixing,rod_fixing,1.0,213.8099999865517,1562174337622.0,1562174337407.0,BLIND,39.0,11.0 21.0,224.0
8279,11.0,765973.0,0.4,39.0,high,high-low,21.0,rod_fixing,rod_fixing,1.0,207.01000001281503,1562174337839.0,1562174337631.0,BLIND,39.0,11.0 21.0,216.0
8280,11.0,765973.0,0.4,39.0,high,high-low,21.0,rod_fixing,rod_fixing,1.0,220.1549999881536,1562174338068.0,1562174337847.0,BLIND,39.0,11.0 21.0,231.0
8281,11.0,765973.0,0.4,39.0,high,high-low,21.0,rod_fixing,rod_fixing,1.0,217.56499994080517,1562174338296.0,1562174338078.0,BLIND,39.0,11.0 21.0,227.0
8282,11.0,765973.0,0.4,39.0,high,high-low,21.0,rod_fixing,rod_fixing,1.0,231.3500000163913,1562174338537.0,1562174338305.0,BLIND,39.0,11.0 21.0,260.0
8879,7.0,765973.0,2.5,39.0,low,high-low,12.0,rod_fixing,rod_fixing,1.0,161.01000003982338,1562174464632.0,1562174464469.0,BLIND,39.0,7.0 12.0,172.0
8880,7.0,765973.0,2.5,39.0,low,high-low,12.0,rod_fixing,rod_fixing,1.0,203.7299999501556,1562174464846.0,1562174464641.0,BLIND,39.0,7.0 12.0,215.0
8881,7.0,765973.0,2.5,39.0,low,high-low,12.0,rod_fixing,rod_fixing,1.0,201.4399999752641,1562174465058.0,1562174464856.0,BLIND,39.0,7.0 12.0,212.0
8882,7.0,765973.0,2.5,39.0,low,high-low,12.0,rod_fixing,rod_fixing,1.0,204.03000002261248,1562174465273.0,1562174465068.0,BLIND,39.0,7.0 12.0,215.0
8883,7.0,765973.0,2.5,39.0,low,high-low,12.0,rod_fixing,rod_fixing,1.0,214.75499996449798,1562174465500.0,1562174465283.0,BLIND,39.0,7.0 12.0,221.0
8884,7.0,765973.0,2.5,39.0,low,high-low,12.0,rod_fixing,rod_fixing,1.0,227.81499999109658,1562174465732.0,1562174465504.0,BLIND,39.0,7.0 12.0,235.0
8885,7.0,765973.0,2.5,39.0,low,high-low,12.0,rod_fixing,rod_fixing,1.0,241.8849999085069,1562174465981.0,1562174465739.0,BLIND,39.0,7.0 12.0,260.0
9176,11.0,765973.0,0.4,39.0,low,high-low,12.0,rod_fixing,rod_fixing,1.0,189.94999991264197,1562174517029.0,1562174516838.0,BLIND,39.0,11.0 12.0,203.0
9177,11.0,765973.0,0.4,39.0,low,high-low,12.0,rod_fixing,rod_fixing,1.0,206.8250000011176,1562174517249.0,1562174517041.0,BLIND,39.0,11.0 12.0,218.0
9178,11.0,765973.0,0.4,39.0,low,high-low,12.0,rod_fixing,rod_fixing,1.0,210.88000002782792,1562174517472.0,1562174517259.0,BLIND,39.0,11.0 12.0,225.0
9179,11.0,765973.0,0.4,39.0,low,high-low,12.0,rod_fixing,rod_fixing,1.0,243.0000000167638,1562174517728.0,1562174517484.0,BLIND,39.0,11.0 12.0,255.0
9180,11.0,765973.0,0.4,39.0,low,high-low,12.0,rod_fixing,rod_fixing,1.0,243.0650000460446,1562174517983.0,1562174517739.0,BLIND,39.0,11.0 12.0,255.0
9181,11.0,765973.0,0.4,39.0,low,high-low,12.0,rod_fixing,rod_fixing,1.0,221.58499993383884,1562174518216.0,1562174517994.0,BLIND,39.0,11.0 12.0,234.0
9182,11.0,765973.0,0.4,39.0,low,high-low,12.0,rod_fixing,rod_fixing,1.0,247.35999992117286,1562174518476.0,1562174518228.0,BLIND,39.0,11.0 12.0,291.0
9539,4.0,765973.0,0.4,39.0,low,high-low,22.0,rod_fixing,rod_fixing,1.0,173.2999999076128,1562174587272.0,1562174587098.0,BLIND,39.0,4.0 22.0,186.0
9540,4.0,765973.0,0.4,39.0,low,high-low,22.0,rod_fixing,rod_fixing,1.0,182.52999999094757,1562174587468.0,1562174587284.0,BLIND,39.0,4.0 22.0,196.0
9541,4.0,765973.0,0.4,39.0,low,high-low,22.0,rod_fixing,rod_fixing,1.0,200.47999999951568,1562174587681.0,1562174587480.0,BLIND,39.0,4.0 22.0,213.0
9542,4.0,765973.0,0.4,39.0,low,high-low,22.0,rod_fixing,rod_fixing,1.0,195.82999998237938,1562174587890.0,1562174587693.0,BLIND,39.0,4.0 22.0,209.0
9543,4.0,765973.0,0.4,39.0,low,high-low,22.0,rod_fixing,rod_fixing,1.0,198.93999991472808,1562174588102.0,1562174587902.0,BLIND,39.0,4.0 22.0,212.0
9544,4.0,765973.0,0.4,39.0,low,high-low,22.0,rod_fixing,rod_fixing,1.0,203.4449999919161,1562174588319.0,1562174588114.0,BLIND,39.0,4.0 22.0,217.0
9545,4.0,765973.0,0.4,39.0,low,high-low,22.0,rod_fixing,rod_fixing,1.0,220.024999929592,1562174588552.0,1562174588331.0,BLIND,39.0,4.0 22.0,260.0
9828,8.0,765973.0,2.5,39.0,low,high-low,22.0,rod_fixing,rod_fixing,1.0,182.8499999828637,1562174639656.0,1562174639472.0,BLIND,39.0,8.0 22.0,196.0
9829,8.0,765973.0,2.5,39.0,low,high-low,22.0,rod_fixing,rod_fixing,1.0,186.33999989833683,1562174639856.0,1562174639668.0,BLIND,39.0,8.0 22.0,200.0
9830,8.0,765973.0,2.5,39.0,low,high-low,22.0,rod_fixing,rod_fixing,1.0,189.6749999141321,1562174640059.0,1562174639868.0,BLIND,39.0,8.0 22.0,204.0
9831,8.0,765973.0,2.5,39.0,low,high-low,22.0,rod_fixing,rod_fixing,1.0,197.4750000517816,1562174640271.0,1562174640072.0,BLIND,39.0,8.0 22.0,211.0
9832,8.0,765973.0,2.5,39.0,low,high-low,22.0,rod_fixing,rod_fixing,1.0,198.65000003483144,1562174640482.0,1562174640283.0,BLIND,39.0,8.0 22.0,212.0
9833,8.0,765973.0,2.5,39.0,low,high-low,22.0,rod_fixing,rod_fixing,1.0,213.93500000704083,1562174640709.0,1562174640495.0,BLIND,39.0,8.0 22.0,226.0
9834,8.0,765973.0,2.5,39.0,low,high-low,22.0,rod_fixing,rod_fixing,1.0,218.12500001396984,1562174640940.0,1562174640721.0,BLIND,39.0,8.0 22.0,267.0
10041,11.0,765973.0,0.4,39.0,low,high-low,22.0,rod_fixing,rod_fixing,1.0,177.74000007193538,1562174678851.0,1562174678672.0,BLIND,39.0,11.0 22.0,191.0
10042,11.0,765973.0,0.4,39.0,low,high-low,22.0,rod_fixing,rod_fixing,1.0,261.96999999228865,1562174679126.0,1562174678863.0,BLIND,39.0,11.0 22.0,276.0
10043,11.0,765973.0,0.4,39.0,low,high-low,22.0,rod_fixing,rod_fixing,1.0,251.1999999405816,1562174679391.0,1562174679139.0,BLIND,39.0,11.0 22.0,264.0
10044,11.0,765973.0,0.4,39.0,low,high-low,22.0,rod_fixing,rod_fixing,1.0,229.71500002313405,1562174679634.0,1562174679403.0,BLIND,39.0,11.0 22.0,236.0
10045,11.0,765973.0,0.4,39.0,low,high-low,22.0,rod_fixing,rod_fixing,1.0,237.4800000106916,1562174679877.0,1562174679639.0,BLIND,39.0,11.0 22.0,251.0
10046,11.0,765973.0,0.4,39.0,low,high-low,22.0,rod_fixing,rod_fixing,1.0,225.01499997451901,1562174680116.0,1562174679890.0,BLIND,39.0,11.0 22.0,239.0
10047,11.0,765973.0,0.4,39.0,low,high-low,22.0,rod_fixing,rod_fixing,1.0,249.1300000110641,1562174680379.0,1562174680129.0,BLIND,39.0,11.0 22.0,290.0
10342,3.0,765978.0,5.1,39.0,high,high-low,11.0,rod_fixing,rod_fixing,1.0,161.97000001557169,1562174260134.0,1562174259971.0,BLIND,39.0,3.0 11.0,167.0
10343,3.0,765978.0,5.1,39.0,high,high-low,11.0,rod_fixing,rod_fixing,1.0,167.7450000133831,1562174260307.0,1562174260138.0,BLIND,39.0,3.0 11.0,172.0
10344,3.0,765978.0,5.1,39.0,high,high-low,11.0,rod_fixing,rod_fixing,1.0,167.13000001618641,1562174260478.0,1562174260310.0,BLIND,39.0,3.0 11.0,172.0
10345,3.0,765978.0,5.1,39.0,high,high-low,11.0,rod_fixing,rod_fixing,1.0,152.42999998736195,1562174260636.0,1562174260482.0,BLIND,39.0,3.0 11.0,157.0
10346,3.0,765978.0,5.1,39.0,high,high-low,11.0,rod_fixing,rod_fixing,1.0,158.99499997613017,1562174260798.0,1562174260639.0,BLIND,39.0,3.0 11.0,163.0
10347,3.0,765978.0,5.1,39.0,high,high-low,11.0,rod_fixing,rod_fixing,1.0,152.83499998622577,1562174260956.0,1562174260802.0,BLIND,39.0,3.0 11.0,158.0
10348,3.0,765978.0,5.1,39.0,high,high-low,11.0,rod_fixing,rod_fixing,1.0,167.68000001320615,1562174261129.0,1562174260960.0,BLIND,39.0,3.0 11.0,182.0
10663,7.0,765978.0,1.0,39.0,high,high-low,11.0,rod_fixing,rod_fixing,1.0,159.90500000771138,1562174312239.0,1562174312078.0,BLIND,39.0,7.0 11.0,165.0
10664,7.0,765978.0,1.0,39.0,high,high-low,11.0,rod_fixing,rod_fixing,1.0,163.91500001191162,1562174312408.0,1562174312243.0,BLIND,39.0,7.0 11.0,168.0
10665,7.0,765978.0,1.0,39.0,high,high-low,11.0,rod_fixing,rod_fixing,1.0,163.19500000099654,1562174312575.0,1562174312411.0,BLIND,39.0,7.0 11.0,167.0
10666,7.0,765978.0,1.0,39.0,high,high-low,11.0,rod_fixing,rod_fixing,1.0,194.06500001787208,1562174312773.0,1562174312578.0,BLIND,39.0,7.0 11.0,198.0
10667,7.0,765978.0,1.0,39.0,high,high-low,11.0,rod_fixing,rod_fixing,1.0,157.18999999808148,1562174312935.0,1562174312776.0,BLIND,39.0,7.0 11.0,163.0
10668,7.0,765978.0,1.0,39.0,high,high-low,11.0,rod_fixing,rod_fixing,1.0,156.6349999920931,1562174313096.0,1562174312939.0,BLIND,39.0,7.0 11.0,160.0
10669,7.0,765978.0,1.0,39.0,high,high-low,11.0,rod_fixing,rod_fixing,1.0,181.86000001151115,1562174313282.0,1562174313099.0,BLIND,39.0,7.0 11.0,195.0
10974,11.0,765978.0,0.1,39.0,high,high-low,11.0,rod_fixing,rod_fixing,1.0,165.33000001800247,1562174364612.0,1562174364446.0,BLIND,39.0,11.0 11.0,170.0
10975,11.0,765978.0,0.1,39.0,high,high-low,11.0,rod_fixing,rod_fixing,1.0,149.71999998670069,1562174364767.0,1562174364616.0,BLIND,39.0,11.0 11.0,155.0
10976,11.0,765978.0,0.1,39.0,high,high-low,11.0,rod_fixing,rod_fixing,1.0,169.56999999820258,1562174364942.0,1562174364771.0,BLIND,39.0,11.0 11.0,176.0
10977,11.0,765978.0,0.1,39.0,high,high-low,11.0,rod_fixing,rod_fixing,1.0,156.41500000492667,1562174365105.0,1562174364947.0,BLIND,39.0,11.0 11.0,163.0
10978,11.0,765978.0,0.1,39.0,high,high-low,11.0,rod_fixing,rod_fixing,1.0,155.94999998575076,1562174365267.0,1562174365110.0,BLIND,39.0,11.0 11.0,162.0
10979,11.0,765978.0,0.1,39.0,high,high-low,11.0,rod_fixing,rod_fixing,1.0,179.19000002439134,1562174365452.0,1562174365272.0,BLIND,39.0,11.0 11.0,185.0
10980,11.0,765978.0,0.1,39.0,high,high-low,11.0,rod_fixing,rod_fixing,1.0,150.7450000208337,1562174365609.0,1562174365457.0,BLIND,39.0,11.0 11.0,165.0
11362,4.0,765978.0,2.5,39.0,high,high-low,21.0,rod_fixing,rod_fixing,1.0,141.4800000202376,1562174447384.0,1562174447241.0,BLIND,39.0,4.0 21.0,147.0
11363,4.0,765978.0,2.5,39.0,high,high-low,21.0,rod_fixing,rod_fixing,1.0,165.78000001027252,1562174447555.0,1562174447388.0,BLIND,39.0,4.0 21.0,172.0
11364,4.0,765978.0,2.5,39.0,high,high-low,21.0,rod_fixing,rod_fixing,1.0,168.97500000777652,1562174447730.0,1562174447560.0,BLIND,39.0,4.0 21.0,175.0
11365,4.0,765978.0,2.5,39.0,high,high-low,21.0,rod_fixing,rod_fixing,1.0,168.81999999168332,1562174447905.0,1562174447735.0,BLIND,39.0,4.0 21.0,175.0
11366,4.0,765978.0,2.5,39.0,high,high-low,21.0,rod_fixing,rod_fixing,1.0,171.6299999970943,1562174448082.0,1562174447910.0,BLIND,39.0,4.0 21.0,177.0
11367,4.0,765978.0,2.5,39.0,high,high-low,21.0,rod_fixing,rod_fixing,1.0,150.26500000385568,1562174448238.0,1562174448087.0,BLIND,39.0,4.0 21.0,156.0
11368,4.0,765978.0,2.5,39.0,high,high-low,21.0,rod_fixing,rod_fixing,1.0,164.66499998932704,1562174448408.0,1562174448243.0,BLIND,39.0,4.0 21.0,186.0
11665,8.0,765978.0,0.1,39.0,high,high-low,21.0,rod_fixing,rod_fixing,1.0,135.2099999785423,1562174499282.0,1562174499146.0,BLIND,39.0,8.0 21.0,142.0
11666,8.0,765978.0,0.1,39.0,high,high-low,21.0,rod_fixing,rod_fixing,1.0,147.22500002244487,1562174499435.0,1562174499288.0,BLIND,39.0,8.0 21.0,153.0
11667,8.0,765978.0,0.1,39.0,high,high-low,21.0,rod_fixing,rod_fixing,1.0,139.9850000161678,1562174499582.0,1562174499441.0,BLIND,39.0,8.0 21.0,147.0
11668,8.0,765978.0,0.1,39.0,high,high-low,21.0,rod_fixing,rod_fixing,1.0,144.3849999923259,1562174499733.0,1562174499588.0,BLIND,39.0,8.0 21.0,150.0
11669,8.0,765978.0,0.1,39.0,high,high-low,21.0,rod_fixing,rod_fixing,1.0,161.0299999883864,1562174499900.0,1562174499738.0,BLIND,39.0,8.0 21.0,168.0
11670,8.0,765978.0,0.1,39.0,high,high-low,21.0,rod_fixing,rod_fixing,1.0,159.56500000902452,1562174500067.0,1562174499906.0,BLIND,39.0,8.0 21.0,167.0
11671,8.0,765978.0,0.1,39.0,high,high-low,21.0,rod_fixing,rod_fixing,1.0,124.97000000439584,1562174500199.0,1562174500073.0,BLIND,39.0,8.0 21.0,142.0
11889,11.0,765978.0,0.4,39.0,high,high-low,21.0,rod_fixing,rod_fixing,1.0,134.90500001353212,1562174538613.0,1562174538476.0,BLIND,39.0,11.0 21.0,142.0
11890,11.0,765978.0,0.4,39.0,high,high-low,21.0,rod_fixing,rod_fixing,1.0,173.5599999956321,1562174538793.0,1562174538618.0,BLIND,39.0,11.0 21.0,180.0
11891,11.0,765978.0,0.4,39.0,high,high-low,21.0,rod_fixing,rod_fixing,1.0,162.05000001355077,1562174538961.0,1562174538798.0,BLIND,39.0,11.0 21.0,169.0
11892,11.0,765978.0,0.4,39.0,high,high-low,21.0,rod_fixing,rod_fixing,1.0,172.95500001637265,1562174539140.0,1562174538967.0,BLIND,39.0,11.0 21.0,178.0
11893,11.0,765978.0,0.4,39.0,high,high-low,21.0,rod_fixing,rod_fixing,1.0,159.01999999186955,1562174539305.0,1562174539145.0,BLIND,39.0,11.0 21.0,166.0
11894,11.0,765978.0,0.4,39.0,high,high-low,21.0,rod_fixing,rod_fixing,1.0,157.58999998797663,1562174539470.0,1562174539311.0,BLIND,39.0,11.0 21.0,165.0
11895,11.0,765978.0,0.4,39.0,high,high-low,21.0,rod_fixing,rod_fixing,1.0,165.1149999815971,1562174539642.0,1562174539476.0,BLIND,39.0,11.0 21.0,187.0
12177,3.0,765978.0,5.1,39.0,low,high-low,12.0,rod_fixing,rod_fixing,1.0,164.3049999838695,1562174629365.0,1562174629200.0,BLIND,39.0,3.0 12.0,171.0
12178,3.0,765978.0,5.1,39.0,low,high-low,12.0,rod_fixing,rod_fixing,1.0,156.64000000106168,1562174629528.0,1562174629371.0,BLIND,39.0,3.0 12.0,163.0
12179,3.0,765978.0,5.1,39.0,low,high-low,12.0,rod_fixing,rod_fixing,1.0,163.99500000989065,1562174629699.0,1562174629534.0,BLIND,39.0,3.0 12.0,169.0
12180,3.0,765978.0,5.1,39.0,low,high-low,12.0,rod_fixing,rod_fixing,1.0,166.7650000017602,1562174629871.0,1562174629703.0,BLIND,39.0,3.0 12.0,173.0
12181,3.0,765978.0,5.1,39.0,low,high-low,12.0,rod_fixing,rod_fixing,1.0,215.345000004163,1562174630092.0,1562174629876.0,BLIND,39.0,3.0 12.0,225.0
12182,3.0,765978.0,5.1,39.0,low,high-low,12.0,rod_fixing,rod_fixing,1.0,178.08499999227936,1562174630280.0,1562174630101.0,BLIND,39.0,3.0 12.0,185.0
12183,3.0,765978.0,5.1,39.0,low,high-low,12.0,rod_fixing,rod_fixing,1.0,191.4450000040233,1562174630478.0,1562174630286.0,BLIND,39.0,3.0 12.0,216.0
12451,7.0,765978.0,1.0,39.0,low,high-low,12.0,rod_fixing,rod_fixing,1.0,183.04999999236315,1562174682276.0,1562174682092.0,BLIND,39.0,7.0 12.0,191.0
12452,7.0,765978.0,1.0,39.0,low,high-low,12.0,rod_fixing,rod_fixing,1.0,165.49000001396053,1562174682449.0,1562174682283.0,BLIND,39.0,7.0 12.0,173.0
12453,7.0,765978.0,1.0,39.0,low,high-low,12.0,rod_fixing,rod_fixing,1.0,178.88999998103827,1562174682635.0,1562174682456.0,BLIND,39.0,7.0 12.0,186.0
12454,7.0,765978.0,1.0,39.0,low,high-low,12.0,rod_fixing,rod_fixing,1.0,176.23499999172054,1562174682819.0,1562174682642.0,BLIND,39.0,7.0 12.0,184.0
12455,7.0,765978.0,1.0,39.0,low,high-low,12.0,rod_fixing,rod_fixing,1.0,167.3000000009779,1562174682994.0,1562174682826.0,BLIND,39.0,7.0 12.0,173.0
12456,7.0,765978.0,1.0,39.0,low,high-low,12.0,rod_fixing,rod_fixing,1.0,173.97999999229796,1562174683174.0,1562174682999.0,BLIND,39.0,7.0 12.0,183.0
12457,7.0,765978.0,1.0,39.0,low,high-low,12.0,rod_fixing,rod_fixing,1.0,185.12499998905696,1562174683368.0,1562174683182.0,BLIND,39.0,7.0 12.0,211.0
12716,11.0,765978.0,0.1,39.0,low,high-low,12.0,rod_fixing,rod_fixing,1.0,182.345000008354,1562174733996.0,1562174733813.0,BLIND,39.0,11.0 12.0,191.0
12717,11.0,765978.0,0.1,39.0,low,high-low,12.0,rod_fixing,rod_fixing,1.0,168.11000002780932,1562174734173.0,1562174734004.0,BLIND,39.0,11.0 12.0,176.0
12718,11.0,765978.0,0.1,39.0,low,high-low,12.0,rod_fixing,rod_fixing,1.0,187.1450000035111,1562174734369.0,1562174734180.0,BLIND,39.0,11.0 12.0,194.0
12719,11.0,765978.0,0.1,39.0,low,high-low,12.0,rod_fixing,rod_fixing,1.0,175.62000002362763,1562174734551.0,1562174734374.0,BLIND,39.0,11.0 12.0,184.0
12720,11.0,765978.0,0.1,39.0,low,high-low,12.0,rod_fixing,rod_fixing,1.0,162.15499999816532,1562174734721.0,1562174734558.0,BLIND,39.0,11.0 12.0,170.0
12721,11.0,765978.0,0.1,39.0,low,high-low,12.0,rod_fixing,rod_fixing,1.0,192.99500001943667,1562174734921.0,1562174734728.0,BLIND,39.0,11.0 12.0,200.0
12722,11.0,765978.0,0.1,39.0,low,high-low,12.0,rod_fixing,rod_fixing,1.0,177.9999999853317,1562174735107.0,1562174734928.0,BLIND,39.0,11.0 12.0,203.0
13051,4.0,765978.0,2.5,39.0,low,high-low,22.0,rod_fixing,rod_fixing,1.0,178.98500000592318,1562174824615.0,1562174824435.0,BLIND,39.0,4.0 22.0,187.0
13052,4.0,765978.0,2.5,39.0,low,high-low,22.0,rod_fixing,rod_fixing,1.0,191.2399999855552,1562174824814.0,1562174824622.0,BLIND,39.0,4.0 22.0,198.0
13053,4.0,765978.0,2.5,39.0,low,high-low,22.0,rod_fixing,rod_fixing,1.0,178.38999998639335,1562174824999.0,1562174824820.0,BLIND,39.0,4.0 22.0,188.0
13054,4.0,765978.0,2.5,39.0,low,high-low,22.0,rod_fixing,rod_fixing,1.0,185.7799999997951,1562174825195.0,1562174825008.0,BLIND,39.0,4.0 22.0,196.0
13055,4.0,765978.0,2.5,39.0,low,high-low,22.0,rod_fixing,rod_fixing,1.0,178.89999999897557,1562174825384.0,1562174825204.0,BLIND,39.0,4.0 22.0,187.0
13056,4.0,765978.0,2.5,39.0,low,high-low,22.0,rod_fixing,rod_fixing,1.0,183.77000000327823,1562174825576.0,1562174825391.0,BLIND,39.0,4.0 22.0,193.0
13057,4.0,765978.0,2.5,39.0,low,high-low,22.0,rod_fixing,rod_fixing,1.0,191.4700000197627,1562174825776.0,1562174825584.0,BLIND,39.0,4.0 22.0,217.0
13314,8.0,765978.0,0.1,39.0,low,high-low,22.0,rod_fixing,rod_fixing,1.0,201.11499997437926,1562174876188.0,1562174875986.0,BLIND,39.0,8.0 22.0,210.0
13315,8.0,765978.0,0.1,39.0,low,high-low,22.0,rod_fixing,rod_fixing,1.0,167.08000001381149,1562174876364.0,1562174876196.0,BLIND,39.0,8.0 22.0,175.0
13316,8.0,765978.0,0.1,39.0,low,high-low,22.0,rod_fixing,rod_fixing,1.0,186.1300000164192,1562174876558.0,1562174876371.0,BLIND,39.0,8.0 22.0,193.0
13317,8.0,765978.0,0.1,39.0,low,high-low,22.0,rod_fixing,rod_fixing,1.0,201.7200000118464,1562174876767.0,1562174876564.0,BLIND,39.0,8.0 22.0,212.0
13318,8.0,765978.0,0.1,39.0,low,high-low,22.0,rod_fixing,rod_fixing,1.0,178.32000000635162,1562174876956.0,1562174876776.0,BLIND,39.0,8.0 22.0,188.0
13319,8.0,765978.0,0.1,39.0,low,high-low,22.0,rod_fixing,rod_fixing,1.0,171.1700000159908,1562174877137.0,1562174876964.0,BLIND,39.0,8.0 22.0,180.0
13320,8.0,765978.0,0.1,39.0,low,high-low,22.0,rod_fixing,rod_fixing,1.0,191.45000001299198,1562174877336.0,1562174877144.0,BLIND,39.0,8.0 22.0,217.0
13514,11.0,765978.0,0.4,39.0,low,high-low,22.0,rod_fixing,rod_fixing,1.0,180.8099999907426,1562174916052.0,1562174915869.0,BLIND,39.0,11.0 22.0,194.0
13515,11.0,765978.0,0.4,39.0,low,high-low,22.0,rod_fixing,rod_fixing,1.0,166.1800000001676,1562174916230.0,1562174916063.0,BLIND,39.0,11.0 22.0,176.0
13516,11.0,765978.0,0.4,39.0,low,high-low,22.0,rod_fixing,rod_fixing,1.0,194.76000001304783,1562174916434.0,1562174916239.0,BLIND,39.0,11.0 22.0,203.0
13517,11.0,765978.0,0.4,39.0,low,high-low,22.0,rod_fixing,rod_fixing,1.0,197.4300000001676,1562174916640.0,1562174916442.0,BLIND,39.0,11.0 22.0,204.0
13518,11.0,765978.0,0.4,39.0,low,high-low,22.0,rod_fixing,rod_fixing,1.0,178.84499998763204,1562174916826.0,1562174916646.0,BLIND,39.0,11.0 22.0,190.0
13519,11.0,765978.0,0.4,39.0,low,high-low,22.0,rod_fixing,rod_fixing,1.0,174.36999999335967,1562174917012.0,1562174916836.0,BLIND,39.0,11.0 22.0,184.0
13520,11.0,765978.0,0.4,39.0,low,high-low,22.0,rod_fixing,rod_fixing,1.0,191.20999998995103,1562174917212.0,1562174917020.0,BLIND,39.0,11.0 22.0,218.0
50782,3.0,765982.0,2.5,39.0,low,low-high,11.0,rod_fixing,rod_fixing,1.0,171.7200000130106,1562174262953.0,1562174262781.0,BLIND,39.0,3.0 11.0,174.0
50783,3.0,765982.0,2.5,39.0,low,low-high,11.0,rod_fixing,rod_fixing,1.0,191.579999984242,1562174263147.0,1562174262955.0,BLIND,39.0,3.0 11.0,194.0
50784,3.0,765982.0,2.5,39.0,low,low-high,11.0,rod_fixing,rod_fixing,1.0,191.49500000639821,1562174263341.0,1562174263149.0,BLIND,39.0,3.0 11.0,194.0
50785,3.0,765982.0,2.5,39.0,low,low-high,11.0,rod_fixing,rod_fixing,1.0,185.39999998756684,1562174263528.0,1562174263343.0,BLIND,39.0,3.0 11.0,187.0
50786,3.0,765982.0,2.5,39.0,low,low-high,11.0,rod_fixing,rod_fixing,1.0,158.2300000009127,1562174263689.0,1562174263530.0,BLIND,39.0,3.0 11.0,161.0
50787,3.0,765982.0,2.5,39.0,low,low-high,11.0,rod_fixing,rod_fixing,1.0,155.2899999951478,1562174263847.0,1562174263691.0,BLIND,39.0,3.0 11.0,158.0
50788,3.0,765982.0,2.5,39.0,low,low-high,11.0,rod_fixing,rod_fixing,1.0,164.50000001350418,1562174264014.0,1562174263849.0,BLIND,39.0,3.0 11.0,171.0
51124,7.0,765982.0,0.4,39.0,low,low-high,11.0,rod_fixing,rod_fixing,1.0,174.93999999715015,1562174314487.0,1562174314312.0,BLIND,39.0,7.0 11.0,178.0
51125,7.0,765982.0,0.4,39.0,low,low-high,11.0,rod_fixing,rod_fixing,1.0,158.1350000051316,1562174314649.0,1562174314490.0,BLIND,39.0,7.0 11.0,160.0
51126,7.0,765982.0,0.4,39.0,low,low-high,11.0,rod_fixing,rod_fixing,1.0,155.07499998784624,1562174314806.0,1562174314650.0,BLIND,39.0,7.0 11.0,158.0
51127,7.0,765982.0,0.4,39.0,low,low-high,11.0,rod_fixing,rod_fixing,1.0,148.23500000056808,1562174314957.0,1562174314808.0,BLIND,39.0,7.0 11.0,151.0
51128,7.0,765982.0,0.4,39.0,low,low-high,11.0,rod_fixing,rod_fixing,1.0,149.25500002573244,1562174315109.0,1562174314959.0,BLIND,39.0,7.0 11.0,152.0
51129,7.0,765982.0,0.4,39.0,low,low-high,11.0,rod_fixing,rod_fixing,1.0,154.33000001939942,1562174315266.0,1562174315111.0,BLIND,39.0,7.0 11.0,157.0
51130,7.0,765982.0,0.4,39.0,low,low-high,11.0,rod_fixing,rod_fixing,1.0,163.49000000627709,1562174315432.0,1562174315268.0,BLIND,39.0,7.0 11.0,171.0
51427,11.0,765982.0,6.0,39.0,low,low-high,11.0,rod_fixing,rod_fixing,1.0,251.510000001872,1562174367142.0,1562174366890.0,BLIND,39.0,11.0 11.0,253.0
51428,11.0,765982.0,6.0,39.0,low,low-high,11.0,rod_fixing,rod_fixing,1.0,139.9850000161678,1562174367284.0,1562174367143.0,BLIND,39.0,11.0 11.0,143.0
51429,11.0,765982.0,6.0,39.0,low,low-high,11.0,rod_fixing,rod_fixing,1.0,389.2899999918882,1562174367676.0,1562174367286.0,BLIND,39.0,11.0 11.0,391.0
51430,11.0,765982.0,6.0,39.0,low,low-high,11.0,rod_fixing,rod_fixing,1.0,162.8049999999348,1562174367841.0,1562174367677.0,BLIND,39.0,11.0 11.0,166.0
51431,11.0,765982.0,6.0,39.0,low,low-high,11.0,rod_fixing,rod_fixing,1.0,188.55500000063333,1562174368032.0,1562174367843.0,BLIND,39.0,11.0 11.0,191.0
51432,11.0,765982.0,6.0,39.0,low,low-high,11.0,rod_fixing,rod_fixing,1.0,167.01999999349937,1562174368201.0,1562174368034.0,BLIND,39.0,11.0 11.0,169.0
51433,11.0,765982.0,6.0,39.0,low,low-high,11.0,rod_fixing,rod_fixing,1.0,184.16000000434,1562174368388.0,1562174368203.0,BLIND,39.0,11.0 11.0,193.0
51724,4.0,765982.0,0.4,39.0,low,low-high,21.0,rod_fixing,rod_fixing,1.0,181.27500000991856,1562174455853.0,1562174455672.0,BLIND,39.0,4.0 21.0,184.0
51725,4.0,765982.0,0.4,39.0,low,low-high,21.0,rod_fixing,rod_fixing,1.0,194.11499999114312,1562174456050.0,1562174455856.0,BLIND,39.0,4.0 21.0,197.0
51726,4.0,765982.0,0.4,39.0,low,low-high,21.0,rod_fixing,rod_fixing,1.0,178.40000000433062,1562174456232.0,1562174456053.0,BLIND,39.0,4.0 21.0,182.0
51727,4.0,765982.0,0.4,39.0,low,low-high,21.0,rod_fixing,rod_fixing,1.0,169.90000000805594,1562174456405.0,1562174456235.0,BLIND,39.0,4.0 21.0,174.0
51728,4.0,765982.0,0.4,39.0,low,low-high,21.0,rod_fixing,rod_fixing,1.0,176.1450000049081,1562174456586.0,1562174456409.0,BLIND,39.0,4.0 21.0,180.0
51729,4.0,765982.0,0.4,39.0,low,low-high,21.0,rod_fixing,rod_fixing,1.0,206.160000001546,1562174456795.0,1562174456589.0,BLIND,39.0,4.0 21.0,209.0
51730,4.0,765982.0,0.4,39.0,low,low-high,21.0,rod_fixing,rod_fixing,1.0,195.1650000119116,1562174456993.0,1562174456798.0,BLIND,39.0,4.0 21.0,204.0
51947,8.0,765982.0,5.1,39.0,low,low-high,21.0,rod_fixing,rod_fixing,1.0,174.7850000101607,1562174497450.0,1562174497275.0,BLIND,39.0,8.0 21.0,177.0
51948,8.0,765982.0,5.1,39.0,low,low-high,21.0,rod_fixing,rod_fixing,1.0,147.90999999968338,1562174497600.0,1562174497452.0,BLIND,39.0,8.0 21.0,151.0
51949,8.0,765982.0,5.1,39.0,low,low-high,21.0,rod_fixing,rod_fixing,1.0,142.6499999943189,1562174497746.0,1562174497603.0,BLIND,39.0,8.0 21.0,145.0
51950,8.0,765982.0,5.1,39.0,low,low-high,21.0,rod_fixing,rod_fixing,1.0,125.92500000027941,1562174497874.0,1562174497748.0,BLIND,39.0,8.0 21.0,128.0
51951,8.0,765982.0,5.1,39.0,low,low-high,21.0,rod_fixing,rod_fixing,1.0,127.65999999828637,1562174498005.0,1562174497876.0,BLIND,39.0,8.0 21.0,131.0
51952,8.0,765982.0,5.1,39.0,low,low-high,21.0,rod_fixing,rod_fixing,1.0,128.57000000076368,1562174498136.0,1562174498007.0,BLIND,39.0,8.0 21.0,131.0
51953,8.0,765982.0,5.1,39.0,low,low-high,21.0,rod_fixing,rod_fixing,1.0,136.8249999941327,1562174498276.0,1562174498138.0,BLIND,39.0,8.0 21.0,146.0
52182,11.0,765982.0,0.1,40.0,low,low-high,21.0,rod_fixing,rod_fixing,1.0,38.78499998245388,1562174533377.0,1562174533338.0,BLIND,40.0,11.0 21.0,147.0
52183,11.0,765982.0,0.1,40.0,low,low-high,21.0,rod_fixing,rod_fixing,1.0,60.02999999327585,1562174533546.0,1562174533485.0,BLIND,40.0,11.0 21.0,166.0
52184,11.0,765982.0,0.1,40.0,low,low-high,21.0,rod_fixing,rod_fixing,1.0,50.00500002643094,1562174533702.0,1562174533651.0,BLIND,40.0,11.0 21.0,156.0
52185,11.0,765982.0,0.1,40.0,low,low-high,21.0,rod_fixing,rod_fixing,1.0,28.60999997938052,1562174533836.0,1562174533807.0,BLIND,40.0,11.0 21.0,133.0
52186,11.0,765982.0,0.1,40.0,low,low-high,21.0,rod_fixing,rod_fixing,1.0,63.2200000109151,1562174534004.0,1562174533940.0,BLIND,40.0,11.0 21.0,172.0
52187,11.0,765982.0,0.1,40.0,low,low-high,21.0,rod_fixing,rod_fixing,1.0,62.489999982062734,1562174534175.0,1562174534112.0,BLIND,40.0,11.0 21.0,170.0
52188,11.0,765982.0,0.1,40.0,low,low-high,21.0,rod_fixing,rod_fixing,1.0,29.72000002046116,1562174534312.0,1562174534282.0,BLIND,40.0,11.0 21.0,138.0
52189,11.0,765982.0,0.1,40.0,low,low-high,21.0,rod_fixing,rod_fixing,1.0,59.34500001603738,1562174534480.0,1562174534420.0,BLIND,40.0,11.0 21.0,168.0
52190,11.0,765982.0,0.1,40.0,low,low-high,21.0,rod_fixing,rod_fixing,1.0,55.41499998071231,1562174534644.0,1562174534588.0,BLIND,40.0,11.0 21.0,163.0
52191,11.0,765982.0,0.1,40.0,low,low-high,21.0,rod_fixing,rod_fixing,1.0,47.9699999850709,1562174534799.0,1562174534751.0,BLIND,40.0,11.0 21.0,156.0
52192,11.0,765982.0,0.1,40.0,low,low-high,21.0,rod_fixing,rod_fixing,1.0,24.704999988898635,1562174534932.0,1562174534907.0,BLIND,40.0,11.0 21.0,134.0
52193,11.0,765982.0,0.1,40.0,low,low-high,21.0,rod_fixing,rod_fixing,1.0,23.75500000198372,1562174535065.0,1562174535041.0,BLIND,40.0,11.0 21.0,131.0
52194,11.0,765982.0,0.1,40.0,low,low-high,21.0,rod_fixing,rod_fixing,1.0,31.62999998312443,1562174535204.0,1562174535172.0,BLIND,40.0,11.0 21.0,135.0
52195,11.0,765982.0,0.1,40.0,low,low-high,21.0,rod_fixing,rod_fixing,1.0,34.93500000331551,1562174535343.0,1562174535307.0,BLIND,40.0,11.0 21.0,140.0
52196,11.0,765982.0,0.1,40.0,low,low-high,21.0,rod_fixing,rod_fixing,1.0,56.13499999162741,1562174535504.0,1562174535447.0,BLIND,40.0,11.0 21.0,170.0
52200,11.0,765982.0,0.1,39.0,low,low-high,21.0,rod_fixing,rod_fixing,1.0,591.8000000237953,1562174536209.0,1562174535617.0,BLIND,39.0,11.0 21.0,1602.0
52479,3.0,765982.0,2.5,39.0,high,low-high,12.0,rod_fixing,rod_fixing,1.0,179.615000000922,1562175197179.0,1562175196999.0,BLIND,39.0,3.0 12.0,182.0
52480,3.0,765982.0,2.5,39.0,high,low-high,12.0,rod_fixing,rod_fixing,1.0,143.5349999810569,1562175197325.0,1562175197181.0,BLIND,39.0,3.0 12.0,147.0
52481,3.0,765982.0,2.5,39.0,high,low-high,12.0,rod_fixing,rod_fixing,1.0,138.85499999742024,1562175197468.0,1562175197328.0,BLIND,39.0,3.0 12.0,142.0
52482,3.0,765982.0,2.5,39.0,high,low-high,12.0,rod_fixing,rod_fixing,1.0,149.62999999988824,1562175197621.0,1562175197470.0,BLIND,39.0,3.0 12.0,154.0
52483,3.0,765982.0,2.5,39.0,high,low-high,12.0,rod_fixing,rod_fixing,1.0,145.1999999990221,1562175197769.0,1562175197624.0,BLIND,39.0,3.0 12.0,148.0
52484,3.0,765982.0,2.5,39.0,high,low-high,12.0,rod_fixing,rod_fixing,1.0,211.83000001474286,1562175197984.0,1562175197772.0,BLIND,39.0,3.0 12.0,215.0
52485,3.0,765982.0,2.5,39.0,high,low-high,12.0,rod_fixing,rod_fixing,1.0,157.4249999830499,1562175198145.0,1562175197987.0,BLIND,39.0,3.0 12.0,168.0
52676,7.0,765982.0,0.4,39.0,high,low-high,12.0,rod_fixing,rod_fixing,1.0,165.7450000056997,1562175256734.0,1562175256568.0,BLIND,39.0,7.0 12.0,169.0
52677,7.0,765982.0,0.4,39.0,high,low-high,12.0,rod_fixing,rod_fixing,1.0,149.04499999829568,1562175256886.0,1562175256737.0,BLIND,39.0,7.0 12.0,153.0
52678,7.0,765982.0,0.4,39.0,high,low-high,12.0,rod_fixing,rod_fixing,1.0,153.4899999969639,1562175257044.0,1562175256890.0,BLIND,39.0,7.0 12.0,157.0
52679,7.0,765982.0,0.4,39.0,high,low-high,12.0,rod_fixing,rod_fixing,1.0,159.5849999866914,1562175257207.0,1562175257047.0,BLIND,39.0,7.0 12.0,163.0
52680,7.0,765982.0,0.4,39.0,high,low-high,12.0,rod_fixing,rod_fixing,1.0,178.28500000177883,1562175257389.0,1562175257210.0,BLIND,39.0,7.0 12.0,181.0
52681,7.0,765982.0,0.4,39.0,high,low-high,12.0,rod_fixing,rod_fixing,1.0,149.00499998475425,1562175257541.0,1562175257391.0,BLIND,39.0,7.0 12.0,153.0
52682,7.0,765982.0,0.4,39.0,high,low-high,12.0,rod_fixing,rod_fixing,1.0,161.7050000058953,1562175257706.0,1562175257544.0,BLIND,39.0,7.0 12.0,173.0
52957,11.0,765982.0,6.0,39.0,high,low-high,12.0,rod_fixing,rod_fixing,1.0,187.18500001705246,1562175300740.0,1562175300552.0,BLIND,39.0,11.0 12.0,191.0
52958,11.0,765982.0,6.0,39.0,high,low-high,12.0,rod_fixing,rod_fixing,1.0,186.10000002081506,1562175300929.0,1562175300743.0,BLIND,39.0,11.0 12.0,189.0
52959,11.0,765982.0,6.0,39.0,high,low-high,12.0,rod_fixing,rod_fixing,1.0,173.41499999747612,1562175301106.0,1562175300932.0,BLIND,39.0,11.0 12.0,177.0
52960,11.0,765982.0,6.0,39.0,high,low-high,12.0,rod_fixing,rod_fixing,1.0,184.3550000048708,1562175301294.0,1562175301109.0,BLIND,39.0,11.0 12.0,188.0
52961,11.0,765982.0,6.0,39.0,high,low-high,12.0,rod_fixing,rod_fixing,1.0,180.39000002318062,1562175301477.0,1562175301297.0,BLIND,39.0,11.0 12.0,184.0
52962,11.0,765982.0,6.0,39.0,high,low-high,12.0,rod_fixing,rod_fixing,1.0,191.24999997438863,1562175301672.0,1562175301481.0,BLIND,39.0,11.0 12.0,195.0
52963,11.0,765982.0,6.0,39.0,high,low-high,12.0,rod_fixing,rod_fixing,1.0,174.76999998325482,1562175301851.0,1562175301676.0,BLIND,39.0,11.0 12.0,186.0
53295,4.0,765982.0,0.4,39.0,high,low-high,22.0,rod_fixing,rod_fixing,1.0,140.8649999939371,1562175369152.0,1562175369010.0,BLIND,39.0,4.0 22.0,145.0
53296,4.0,765982.0,0.4,39.0,high,low-high,22.0,rod_fixing,rod_fixing,1.0,163.1249999918509,1562175369318.0,1562175369155.0,BLIND,39.0,4.0 22.0,166.0
53297,4.0,765982.0,0.4,39.0,high,low-high,22.0,rod_fixing,rod_fixing,1.0,144.13999998942018,1562175369466.0,1562175369321.0,BLIND,39.0,4.0 22.0,148.0
53298,4.0,765982.0,0.4,39.0,high,low-high,22.0,rod_fixing,rod_fixing,1.0,129.44499999866818,1562175369599.0,1562175369469.0,BLIND,39.0,4.0 22.0,133.0
53299,4.0,765982.0,0.4,39.0,high,low-high,22.0,rod_fixing,rod_fixing,1.0,130.5350000038743,1562175369733.0,1562175369602.0,BLIND,39.0,4.0 22.0,135.0
53300,4.0,765982.0,0.4,39.0,high,low-high,22.0,rod_fixing,rod_fixing,1.0,140.95499998074956,1562175369879.0,1562175369737.0,BLIND,39.0,4.0 22.0,145.0
53301,4.0,765982.0,0.4,39.0,high,low-high,22.0,rod_fixing,rod_fixing,1.0,143.04999998421408,1562175370026.0,1562175369882.0,BLIND,39.0,4.0 22.0,158.0
53611,8.0,765982.0,5.1,39.0,high,low-high,22.0,rod_fixing,rod_fixing,1.0,188.4350000182167,1562175422130.0,1562175421941.0,BLIND,39.0,8.0 22.0,192.0
53612,8.0,765982.0,5.1,39.0,high,low-high,22.0,rod_fixing,rod_fixing,1.0,134.45499999215826,1562175422268.0,1562175422133.0,BLIND,39.0,8.0 22.0,139.0
53613,8.0,765982.0,5.1,39.0,high,low-high,22.0,rod_fixing,rod_fixing,1.0,163.509999983944,1562175422436.0,1562175422272.0,BLIND,39.0,8.0 22.0,168.0
53614,8.0,765982.0,5.1,39.0,high,low-high,22.0,rod_fixing,rod_fixing,1.0,162.9749999847263,1562175422603.0,1562175422440.0,BLIND,39.0,8.0 22.0,167.0
53615,8.0,765982.0,5.1,39.0,high,low-high,22.0,rod_fixing,rod_fixing,1.0,165.71500001009554,1562175422773.0,1562175422607.0,BLIND,39.0,8.0 22.0,169.0
53616,8.0,765982.0,5.1,39.0,high,low-high,22.0,rod_fixing,rod_fixing,1.0,344.47500001988374,1562175423121.0,1562175422776.0,BLIND,39.0,8.0 22.0,348.0
53617,8.0,765982.0,5.1,39.0,high,low-high,22.0,rod_fixing,rod_fixing,1.0,204.6550000086427,1562175423329.0,1562175423124.0,BLIND,39.0,8.0 22.0,220.0
53768,11.0,765982.0,0.1,39.0,high,low-high,22.0,rod_fixing,rod_fixing,1.0,178.52499999571592,1562175460964.0,1562175460785.0,BLIND,39.0,11.0 22.0,182.0
53769,11.0,765982.0,0.1,39.0,high,low-high,22.0,rod_fixing,rod_fixing,1.0,157.44999999878928,1562175461125.0,1562175460967.0,BLIND,39.0,11.0 22.0,162.0
53770,11.0,765982.0,0.1,39.0,high,low-high,22.0,rod_fixing,rod_fixing,1.0,160.7349999831058,1562175461290.0,1562175461129.0,BLIND,39.0,11.0 22.0,165.0
53771,11.0,765982.0,0.1,39.0,high,low-high,22.0,rod_fixing,rod_fixing,1.0,145.69000000483356,1562175461440.0,1562175461294.0,BLIND,39.0,11.0 22.0,151.0
53772,11.0,765982.0,0.1,39.0,high,low-high,22.0,rod_fixing,rod_fixing,1.0,161.3999999826774,1562175461607.0,1562175461445.0,BLIND,39.0,11.0 22.0,166.0
53773,11.0,765982.0,0.1,39.0,high,low-high,22.0,rod_fixing,rod_fixing,1.0,154.24499998334798,1562175461765.0,1562175461611.0,BLIND,39.0,11.0 22.0,158.0
53774,11.0,765982.0,0.1,39.0,high,low-high,22.0,rod_fixing,rod_fixing,1.0,155.14499999699186,1562175461924.0,1562175461769.0,BLIND,39.0,11.0 22.0,172.0
52197,11.0,765982.0,0.1,,low,low-high,21.0,rod_fixing,rod_fixing,1.0,,,,BLIND,,11.0 21.0,
52198,11.0,765982.0,0.1,,low,low-high,21.0,rod_fixing,rod_fixing,1.0,,,,BLIND,,11.0 21.0,
52199,11.0,765982.0,0.1,,low,low-high,21.0,rod_fixing,rod_fixing,1.0,,,,BLIND,,11.0 21.0,
46906,3.0,765983.0,6.0,39.0,low,low-high,11.0,rod_fixing,rod_fixing,1.0,244.58500009495762,1562174215566.0,1562174215320.0,BLIND,39.0,3.0 11.0,251.0
46907,3.0,765983.0,6.0,39.0,low,low-high,11.0,rod_fixing,rod_fixing,1.0,145.88000008370727,1562174215718.0,1562174215571.0,BLIND,39.0,3.0 11.0,152.0
46908,3.0,765983.0,6.0,39.0,low,low-high,11.0,rod_fixing,rod_fixing,1.0,149.2599999764934,1562174215874.0,1562174215723.0,BLIND,39.0,3.0 11.0,155.0
46909,3.0,765983.0,6.0,39.0,low,low-high,11.0,rod_fixing,rod_fixing,1.0,142.7750000730157,1562174216022.0,1562174215878.0,BLIND,39.0,3.0 11.0,148.0
46910,3.0,765983.0,6.0,39.0,low,low-high,11.0,rod_fixing,rod_fixing,1.0,159.83499994035807,1562174216186.0,1562174216026.0,BLIND,39.0,3.0 11.0,165.0
46911,3.0,765983.0,6.0,39.0,low,low-high,11.0,rod_fixing,rod_fixing,1.0,141.58999989740548,1562174216334.0,1562174216191.0,BLIND,39.0,3.0 11.0,148.0
46912,3.0,765983.0,6.0,39.0,low,low-high,11.0,rod_fixing,rod_fixing,1.0,150.09999996982515,1562174216490.0,1562174216339.0,BLIND,39.0,3.0 11.0,170.0
47537,11.0,765983.0,0.4,39.0,low,low-high,11.0,rod_fixing,rod_fixing,1.0,180.80500001087785,1562174320404.0,1562174320222.0,BLIND,39.0,11.0 11.0,187.0
47538,11.0,765983.0,0.4,39.0,low,low-high,11.0,rod_fixing,rod_fixing,1.0,161.4400000544265,1562174320571.0,1562174320409.0,BLIND,39.0,11.0 11.0,167.0
47539,11.0,765983.0,0.4,39.0,low,low-high,11.0,rod_fixing,rod_fixing,1.0,182.43000004440543,1562174320760.0,1562174320576.0,BLIND,39.0,11.0 11.0,189.0
47540,11.0,765983.0,0.4,39.0,low,low-high,11.0,rod_fixing,rod_fixing,1.0,204.604999977164,1562174320971.0,1562174320765.0,BLIND,39.0,11.0 11.0,211.0
47541,11.0,765983.0,0.4,39.0,low,low-high,11.0,rod_fixing,rod_fixing,1.0,145.4450000310317,1562174321122.0,1562174320976.0,BLIND,39.0,11.0 11.0,151.0
47542,11.0,765983.0,0.4,39.0,low,low-high,11.0,rod_fixing,rod_fixing,1.0,143.1050000246614,1562174321271.0,1562174321127.0,BLIND,39.0,11.0 11.0,149.0
47543,11.0,765983.0,0.4,39.0,low,low-high,11.0,rod_fixing,rod_fixing,1.0,130.24999992921948,1562174321407.0,1562174321276.0,BLIND,39.0,11.0 11.0,152.0
47974,4.0,765983.0,0.4,39.0,low,low-high,21.0,rod_fixing,rod_fixing,1.0,175.6449999520555,1562174402098.0,1562174401922.0,BLIND,39.0,4.0 21.0,178.0
47975,4.0,765983.0,0.4,39.0,low,low-high,21.0,rod_fixing,rod_fixing,1.0,149.8099999735132,1562174402250.0,1562174402100.0,BLIND,39.0,4.0 21.0,152.0
47976,4.0,765983.0,0.4,39.0,low,low-high,21.0,rod_fixing,rod_fixing,1.0,141.78000006359068,1562174402394.0,1562174402252.0,BLIND,39.0,4.0 21.0,143.0
47977,4.0,765983.0,0.4,39.0,low,low-high,21.0,rod_fixing,rod_fixing,1.0,158.3600000012666,1562174402554.0,1562174402395.0,BLIND,39.0,4.0 21.0,160.0
47978,4.0,765983.0,0.4,39.0,low,low-high,21.0,rod_fixing,rod_fixing,1.0,142.47999992221594,1562174402698.0,1562174402555.0,BLIND,39.0,4.0 21.0,145.0
47979,4.0,765983.0,0.4,39.0,low,low-high,21.0,rod_fixing,rod_fixing,1.0,170.200000051409,1562174402870.0,1562174402700.0,BLIND,39.0,4.0 21.0,171.0
47980,4.0,765983.0,0.4,39.0,low,low-high,21.0,rod_fixing,rod_fixing,1.0,162.63499995693562,1562174403034.0,1562174402871.0,BLIND,39.0,4.0 21.0,169.0
48277,8.0,765983.0,2.5,39.0,low,low-high,21.0,rod_fixing,rod_fixing,1.0,122.26500001270323,1562174455450.0,1562174455328.0,BLIND,39.0,8.0 21.0,124.0
48278,8.0,765983.0,2.5,39.0,low,low-high,21.0,rod_fixing,rod_fixing,1.0,129.65000001713634,1562174455582.0,1562174455452.0,BLIND,39.0,8.0 21.0,132.0
48279,8.0,765983.0,2.5,39.0,low,low-high,21.0,rod_fixing,rod_fixing,1.0,130.00500004272908,1562174455714.0,1562174455584.0,BLIND,39.0,8.0 21.0,132.0
48280,8.0,765983.0,2.5,39.0,low,low-high,21.0,rod_fixing,rod_fixing,1.0,122.09000007715076,1562174455838.0,1562174455716.0,BLIND,39.0,8.0 21.0,124.0
48281,8.0,765983.0,2.5,39.0,low,low-high,21.0,rod_fixing,rod_fixing,1.0,134.3000000342727,1562174455974.0,1562174455840.0,BLIND,39.0,8.0 21.0,136.0
48282,8.0,765983.0,2.5,39.0,low,low-high,21.0,rod_fixing,rod_fixing,1.0,130.34000003244728,1562174456106.0,1562174455976.0,BLIND,39.0,8.0 21.0,132.0
48283,8.0,765983.0,2.5,39.0,low,low-high,21.0,rod_fixing,rod_fixing,1.0,138.03500006906685,1562174456246.0,1562174456108.0,BLIND,39.0,8.0 21.0,144.0
48528,11.0,765983.0,0.4,39.0,low,low-high,21.0,rod_fixing,rod_fixing,1.0,181.3049999764189,1562174493700.0,1562174493518.0,BLIND,39.0,11.0 21.0,183.0
48529,11.0,765983.0,0.4,39.0,low,low-high,21.0,rod_fixing,rod_fixing,1.0,98.76000008080156,1562174493800.0,1562174493701.0,BLIND,39.0,11.0 21.0,100.0
48530,11.0,765983.0,0.4,39.0,low,low-high,21.0,rod_fixing,rod_fixing,1.0,71.61500002257526,1562174493873.0,1562174493801.0,BLIND,39.0,11.0 21.0,73.0
48531,11.0,765983.0,0.4,39.0,low,low-high,21.0,rod_fixing,rod_fixing,1.0,162.35999995842576,1562174494037.0,1562174493874.0,BLIND,39.0,11.0 21.0,164.0
48532,11.0,765983.0,0.4,39.0,low,low-high,21.0,rod_fixing,rod_fixing,1.0,162.21500001847744,1562174494201.0,1562174494038.0,BLIND,39.0,11.0 21.0,164.0
48533,11.0,765983.0,0.4,39.0,low,low-high,21.0,rod_fixing,rod_fixing,1.0,158.0650000832975,1562174494361.0,1562174494202.0,BLIND,39.0,11.0 21.0,160.0
48534,11.0,765983.0,0.4,39.0,low,low-high,21.0,rod_fixing,rod_fixing,1.0,118.06000000797212,1562174494481.0,1562174494362.0,BLIND,39.0,11.0 21.0,125.0
48860,3.0,765983.0,6.0,39.0,high,low-high,12.0,rod_fixing,rod_fixing,1.0,142.17000000644475,1562174574548.0,1562174574405.0,BLIND,39.0,3.0 12.0,151.0
48861,3.0,765983.0,6.0,39.0,high,low-high,12.0,rod_fixing,rod_fixing,1.0,259.27999999839807,1562174574816.0,1562174574556.0,BLIND,39.0,3.0 12.0,267.0
48862,3.0,765983.0,6.0,39.0,high,low-high,12.0,rod_fixing,rod_fixing,1.0,134.3800000613555,1562174574958.0,1562174574823.0,BLIND,39.0,3.0 12.0,143.0
48863,3.0,765983.0,6.0,39.0,high,low-high,12.0,rod_fixing,rod_fixing,1.0,147.34000002499667,1562174575115.0,1562174574966.0,BLIND,39.0,3.0 12.0,159.0
48864,3.0,765983.0,6.0,39.0,high,low-high,12.0,rod_fixing,rod_fixing,1.0,147.39499997813255,1562174575273.0,1562174575125.0,BLIND,39.0,3.0 12.0,152.0
48865,3.0,765983.0,6.0,39.0,high,low-high,12.0,rod_fixing,rod_fixing,1.0,141.1599999992177,1562174575418.0,1562174575277.0,BLIND,39.0,3.0 12.0,148.0
48866,3.0,765983.0,6.0,39.0,high,low-high,12.0,rod_fixing,rod_fixing,1.0,144.1800000611693,1562174575570.0,1562174575425.0,BLIND,39.0,3.0 12.0,177.0
49194,7.0,765983.0,1.0,39.0,high,low-high,12.0,rod_fixing,rod_fixing,1.0,154.9600000726059,1562174626615.0,1562174626459.0,BLIND,39.0,7.0 12.0,164.0
49195,7.0,765983.0,1.0,39.0,high,low-high,12.0,rod_fixing,rod_fixing,1.0,122.74000002071259,1562174626746.0,1562174626623.0,BLIND,39.0,7.0 12.0,131.0
49196,7.0,765983.0,1.0,39.0,high,low-high,12.0,rod_fixing,rod_fixing,1.0,114.27499994169919,1562174626869.0,1562174626754.0,BLIND,39.0,7.0 12.0,122.0
49197,7.0,765983.0,1.0,39.0,high,low-high,12.0,rod_fixing,rod_fixing,1.0,126.04499992448835,1562174627003.0,1562174626876.0,BLIND,39.0,7.0 12.0,135.0
49198,7.0,765983.0,1.0,39.0,high,low-high,12.0,rod_fixing,rod_fixing,1.0,112.19500005245209,1562174627124.0,1562174627011.0,BLIND,39.0,7.0 12.0,126.0
49199,7.0,765983.0,1.0,39.0,high,low-high,12.0,rod_fixing,rod_fixing,1.0,107.96499997377396,1562174627246.0,1562174627137.0,BLIND,39.0,7.0 12.0,119.0
49200,7.0,765983.0,1.0,39.0,high,low-high,12.0,rod_fixing,rod_fixing,1.0,117.92500002775341,1562174627375.0,1562174627256.0,BLIND,39.0,7.0 12.0,159.0
49540,11.0,765983.0,0.4,39.0,high,low-high,12.0,rod_fixing,rod_fixing,1.0,333.2299999892712,1562174679148.0,1562174678814.0,BLIND,39.0,11.0 12.0,339.0
49541,11.0,765983.0,0.4,39.0,high,low-high,12.0,rod_fixing,rod_fixing,1.0,140.13499999418855,1562174679293.0,1562174679153.0,BLIND,39.0,11.0 12.0,150.0
49542,11.0,765983.0,0.4,39.0,high,low-high,12.0,rod_fixing,rod_fixing,1.0,150.21999995224178,1562174679454.0,1562174679303.0,BLIND,39.0,11.0 12.0,160.0
49543,11.0,765983.0,0.4,39.0,high,low-high,12.0,rod_fixing,rod_fixing,1.0,141.4799999911338,1562174679605.0,1562174679463.0,BLIND,39.0,11.0 12.0,157.0
49544,11.0,765983.0,0.4,39.0,high,low-high,12.0,rod_fixing,rod_fixing,1.0,156.36500006075946,1562174679777.0,1562174679620.0,BLIND,39.0,11.0 12.0,167.0
49545,11.0,765983.0,0.4,39.0,high,low-high,12.0,rod_fixing,rod_fixing,1.0,121.4000000618398,1562174679909.0,1562174679787.0,BLIND,39.0,11.0 12.0,331.0
49966,4.0,765983.0,0.4,39.0,high,low-high,22.0,rod_fixing,rod_fixing,1.0,980.2250000648199,1562174768865.0,1562174767884.0,BLIND,39.0,4.0 22.0,990.0
49967,4.0,765983.0,0.4,39.0,high,low-high,22.0,rod_fixing,rod_fixing,1.0,128.68999992497265,1562174769004.0,1562174768874.0,BLIND,39.0,4.0 22.0,140.0
49968,4.0,765983.0,0.4,39.0,high,low-high,22.0,rod_fixing,rod_fixing,1.0,156.9649999728426,1562174769172.0,1562174769014.0,BLIND,39.0,4.0 22.0,168.0
49969,4.0,765983.0,0.4,39.0,high,low-high,22.0,rod_fixing,rod_fixing,1.0,141.27499994356185,1562174769324.0,1562174769182.0,BLIND,39.0,4.0 22.0,152.0
49970,4.0,765983.0,0.4,39.0,high,low-high,22.0,rod_fixing,rod_fixing,1.0,161.77000000607222,1562174769496.0,1562174769334.0,BLIND,39.0,4.0 22.0,172.0
49971,4.0,765983.0,0.4,39.0,high,low-high,22.0,rod_fixing,rod_fixing,1.0,141.5049999486655,1562174769648.0,1562174769506.0,BLIND,39.0,4.0 22.0,151.0
49972,4.0,765983.0,0.4,39.0,high,low-high,22.0,rod_fixing,rod_fixing,1.0,161.84000007342547,1562174769820.0,1562174769657.0,BLIND,39.0,4.0 22.0,204.0
50275,8.0,765983.0,2.5,39.0,high,low-high,22.0,rod_fixing,rod_fixing,1.0,149.6700000716373,1562174820893.0,1562174820743.0,BLIND,39.0,8.0 22.0,160.0
50276,8.0,765983.0,2.5,39.0,high,low-high,22.0,rod_fixing,rod_fixing,1.0,132.78500002343208,1562174821037.0,1562174820903.0,BLIND,39.0,8.0 22.0,145.0
50277,8.0,765983.0,2.5,39.0,high,low-high,22.0,rod_fixing,rod_fixing,1.0,148.24000000953674,1562174821197.0,1562174821048.0,BLIND,39.0,8.0 22.0,160.0
50278,8.0,765983.0,2.5,39.0,high,low-high,22.0,rod_fixing,rod_fixing,1.0,128.82999994326383,1562174821337.0,1562174821208.0,BLIND,39.0,8.0 22.0,139.0
50279,8.0,765983.0,2.5,39.0,high,low-high,22.0,rod_fixing,rod_fixing,1.0,156.50500007905066,1562174821505.0,1562174821347.0,BLIND,39.0,8.0 22.0,168.0
50280,8.0,765983.0,2.5,39.0,high,low-high,22.0,rod_fixing,rod_fixing,1.0,126.12000002991407,1562174821642.0,1562174821515.0,BLIND,39.0,8.0 22.0,139.0
50281,8.0,765983.0,2.5,39.0,high,low-high,22.0,rod_fixing,rod_fixing,1.0,186.38499989174304,1562174821841.0,1562174821654.0,BLIND,39.0,8.0 22.0,226.0
