index,trial_index,id,price_displayed,key pressed,environment,order,round_instance,task,function_id,quality_check,builtin_rt,end_time,start_time,Participant Public ID,key_pressed,trial_label,latency
177642,3.0,668220.0,1.2,39.0,low,low-high,11.0,rod_fixing,rod_fixing,1.0,148.73500000021886,1554474856208.0,1554474856058.0,5a75c98cae9a0b0001a95926,39.0,3.0 11.0,154.0
177643,3.0,668220.0,1.2,39.0,low,low-high,11.0,rod_fixing,rod_fixing,1.0,168.56000000007043,1554474856381.0,1554474856212.0,5a75c98cae9a0b0001a95926,39.0,3.0 11.0,172.0
177644,3.0,668220.0,1.2,39.0,low,low-high,11.0,rod_fixing,rod_fixing,1.0,150.41500000006639,1554474856535.0,1554474856384.0,5a75c98cae9a0b0001a95926,39.0,3.0 11.0,154.0
177645,3.0,668220.0,1.2,39.0,low,low-high,11.0,rod_fixing,rod_fixing,1.0,179.21500000011292,1554474856717.0,1554474856538.0,5a75c98cae9a0b0001a95926,39.0,3.0 11.0,182.0
177646,3.0,668220.0,1.2,39.0,low,low-high,11.0,rod_fixing,rod_fixing,1.0,169.54000000032102,1554474856890.0,1554474856720.0,5a75c98cae9a0b0001a95926,39.0,3.0 11.0,175.0
177647,3.0,668220.0,1.2,39.0,low,low-high,11.0,rod_fixing,rod_fixing,1.0,155.95999999959895,1554474857052.0,1554474856895.0,5a75c98cae9a0b0001a95926,39.0,3.0 11.0,160.0
177648,3.0,668220.0,1.2,39.0,low,low-high,11.0,rod_fixing,rod_fixing,1.0,169.17999999986202,1554474857225.0,1554474857055.0,5a75c98cae9a0b0001a95926,39.0,3.0 11.0,182.0
177964,7.0,668220.0,0.3,39.0,low,low-high,11.0,rod_fixing,rod_fixing,1.0,173.64999999971766,1554474908247.0,1554474908073.0,5a75c98cae9a0b0001a95926,39.0,7.0 11.0,178.0
177965,7.0,668220.0,0.3,39.0,low,low-high,11.0,rod_fixing,rod_fixing,1.0,166.5600000001141,1554474908418.0,1554474908251.0,5a75c98cae9a0b0001a95926,39.0,7.0 11.0,171.0
177966,7.0,668220.0,0.3,39.0,low,low-high,11.0,rod_fixing,rod_fixing,1.0,177.20000000008443,1554474908600.0,1554474908422.0,5a75c98cae9a0b0001a95926,39.0,7.0 11.0,182.0
177967,7.0,668220.0,0.3,39.0,low,low-high,11.0,rod_fixing,rod_fixing,1.0,180.6599999999889,1554474908785.0,1554474908604.0,5a75c98cae9a0b0001a95926,39.0,7.0 11.0,184.0
177968,7.0,668220.0,0.3,39.0,low,low-high,11.0,rod_fixing,rod_fixing,1.0,168.15499999983876,1554474908957.0,1554474908788.0,5a75c98cae9a0b0001a95926,39.0,7.0 11.0,174.0
177969,7.0,668220.0,0.3,39.0,low,low-high,11.0,rod_fixing,rod_fixing,1.0,178.1350000001112,1554474909141.0,1554474908962.0,5a75c98cae9a0b0001a95926,39.0,7.0 11.0,183.0
177970,7.0,668220.0,0.3,39.0,low,low-high,11.0,rod_fixing,rod_fixing,1.0,173.00500000010655,1554474909319.0,1554474909145.0,5a75c98cae9a0b0001a95926,39.0,7.0 11.0,187.0
178279,11.0,668220.0,0.7,39.0,low,low-high,11.0,rod_fixing,rod_fixing,1.0,166.4150000001537,1554474959988.0,1554474959821.0,5a75c98cae9a0b0001a95926,39.0,11.0 11.0,172.0
178280,11.0,668220.0,0.7,39.0,low,low-high,11.0,rod_fixing,rod_fixing,1.0,158.17500000001746,1554474960152.0,1554474959993.0,5a75c98cae9a0b0001a95926,39.0,11.0 11.0,163.0
178281,11.0,668220.0,0.7,39.0,low,low-high,11.0,rod_fixing,rod_fixing,1.0,179.41000000017812,1554474960336.0,1554474960156.0,5a75c98cae9a0b0001a95926,39.0,11.0 11.0,186.0
178282,11.0,668220.0,0.7,39.0,low,low-high,11.0,rod_fixing,rod_fixing,1.0,166.1400000002468,1554474960509.0,1554474960342.0,5a75c98cae9a0b0001a95926,39.0,11.0 11.0,171.0
178283,11.0,668220.0,0.7,39.0,low,low-high,11.0,rod_fixing,rod_fixing,1.0,169.5549999999348,1554474960684.0,1554474960513.0,5a75c98cae9a0b0001a95926,39.0,11.0 11.0,175.0
178284,11.0,668220.0,0.7,39.0,low,low-high,11.0,rod_fixing,rod_fixing,1.0,158.39499999993131,1554474960847.0,1554474960688.0,5a75c98cae9a0b0001a95926,39.0,11.0 11.0,334.0
178685,4.0,668220.0,1.8,39.0,low,low-high,21.0,rod_fixing,rod_fixing,1.0,166.16000000020722,1554475043471.0,1554475043304.0,5a75c98cae9a0b0001a95926,39.0,4.0 21.0,170.0
178686,4.0,668220.0,1.8,39.0,low,low-high,21.0,rod_fixing,rod_fixing,1.0,158.42000000021653,1554475043633.0,1554475043474.0,5a75c98cae9a0b0001a95926,39.0,4.0 21.0,162.0
178687,4.0,668220.0,1.8,39.0,low,low-high,21.0,rod_fixing,rod_fixing,1.0,169.74500000016997,1554475043807.0,1554475043636.0,5a75c98cae9a0b0001a95926,39.0,4.0 21.0,174.0
178688,4.0,668220.0,1.8,39.0,low,low-high,21.0,rod_fixing,rod_fixing,1.0,180.47999999998137,1554475043991.0,1554475043810.0,5a75c98cae9a0b0001a95926,39.0,4.0 21.0,184.0
178689,4.0,668220.0,1.8,39.0,low,low-high,21.0,rod_fixing,rod_fixing,1.0,173.5950000002049,1554475044168.0,1554475043994.0,5a75c98cae9a0b0001a95926,39.0,4.0 21.0,178.0
178690,4.0,668220.0,1.8,39.0,low,low-high,21.0,rod_fixing,rod_fixing,1.0,189.35499999998137,1554475044362.0,1554475044172.0,5a75c98cae9a0b0001a95926,39.0,4.0 21.0,350.0
179013,8.0,668220.0,0.7,39.0,low,low-high,21.0,rod_fixing,rod_fixing,1.0,167.1500000002561,1554475095001.0,1554475094833.0,5a75c98cae9a0b0001a95926,39.0,8.0 21.0,172.0
179014,8.0,668220.0,0.7,39.0,low,low-high,21.0,rod_fixing,rod_fixing,1.0,182.93000000040047,1554475095189.0,1554475095005.0,5a75c98cae9a0b0001a95926,39.0,8.0 21.0,189.0
179015,8.0,668220.0,0.7,39.0,low,low-high,21.0,rod_fixing,rod_fixing,1.0,166.78000000002794,1554475095361.0,1554475095194.0,5a75c98cae9a0b0001a95926,39.0,8.0 21.0,172.0
179016,8.0,668220.0,0.7,39.0,low,low-high,21.0,rod_fixing,rod_fixing,1.0,168.6949999998324,1554475095535.0,1554475095366.0,5a75c98cae9a0b0001a95926,39.0,8.0 21.0,174.0
179017,8.0,668220.0,0.7,39.0,low,low-high,21.0,rod_fixing,rod_fixing,1.0,166.78499999985797,1554475095708.0,1554475095540.0,5a75c98cae9a0b0001a95926,39.0,8.0 21.0,172.0
179018,8.0,668220.0,0.7,39.0,low,low-high,21.0,rod_fixing,rod_fixing,1.0,148.11499999993245,1554475095860.0,1554475095712.0,5a75c98cae9a0b0001a95926,39.0,8.0 21.0,152.0
179019,8.0,668220.0,0.7,39.0,low,low-high,21.0,rod_fixing,rod_fixing,1.0,178.72499999974391,1554475096043.0,1554475095864.0,5a75c98cae9a0b0001a95926,39.0,8.0 21.0,198.0
179257,11.0,668220.0,1.2,39.0,low,low-high,21.0,rod_fixing,rod_fixing,1.0,179.85499999986496,1554475134211.0,1554475134030.0,5a75c98cae9a0b0001a95926,39.0,11.0 21.0,186.0
179258,11.0,668220.0,1.2,39.0,low,low-high,21.0,rod_fixing,rod_fixing,1.0,206.31999999977413,1554475134423.0,1554475134216.0,5a75c98cae9a0b0001a95926,39.0,11.0 21.0,213.0
179259,11.0,668220.0,1.2,39.0,low,low-high,21.0,rod_fixing,rod_fixing,1.0,197.11999999982072,1554475134626.0,1554475134429.0,5a75c98cae9a0b0001a95926,39.0,11.0 21.0,203.0
179260,11.0,668220.0,1.2,39.0,low,low-high,21.0,rod_fixing,rod_fixing,1.0,188.4549999999581,1554475134821.0,1554475134632.0,5a75c98cae9a0b0001a95926,39.0,11.0 21.0,194.0
179261,11.0,668220.0,1.2,39.0,low,low-high,21.0,rod_fixing,rod_fixing,1.0,176.31500000017695,1554475135003.0,1554475134826.0,5a75c98cae9a0b0001a95926,39.0,11.0 21.0,182.0
179262,11.0,668220.0,1.2,39.0,low,low-high,21.0,rod_fixing,rod_fixing,1.0,180.83500000013737,1554475135190.0,1554475135008.0,5a75c98cae9a0b0001a95926,39.0,11.0 21.0,187.0
179263,11.0,668220.0,1.2,39.0,low,low-high,21.0,rod_fixing,rod_fixing,1.0,158.17500000004657,1554475135354.0,1554475135195.0,5a75c98cae9a0b0001a95926,39.0,11.0 21.0,179.0
179608,3.0,668220.0,1.2,39.0,high,low-high,12.0,rod_fixing,rod_fixing,1.0,175.3300000000745,1554475233359.0,1554475233182.0,5a75c98cae9a0b0001a95926,39.0,3.0 12.0,183.0
179609,3.0,668220.0,1.2,39.0,high,low-high,12.0,rod_fixing,rod_fixing,1.0,137.09000000020023,1554475233502.0,1554475233365.0,5a75c98cae9a0b0001a95926,39.0,3.0 12.0,142.0
179610,3.0,668220.0,1.2,39.0,high,low-high,12.0,rod_fixing,rod_fixing,1.0,156.4100000000908,1554475233664.0,1554475233507.0,5a75c98cae9a0b0001a95926,39.0,3.0 12.0,162.0
179611,3.0,668220.0,1.2,39.0,high,low-high,12.0,rod_fixing,rod_fixing,1.0,167.62999999994645,1554475233837.0,1554475233669.0,5a75c98cae9a0b0001a95926,39.0,3.0 12.0,174.0
179612,3.0,668220.0,1.2,39.0,high,low-high,12.0,rod_fixing,rod_fixing,1.0,159.94500000029802,1554475234003.0,1554475233843.0,5a75c98cae9a0b0001a95926,39.0,3.0 12.0,166.0
179613,3.0,668220.0,1.2,39.0,high,low-high,12.0,rod_fixing,rod_fixing,1.0,155.26499999989755,1554475234165.0,1554475234009.0,5a75c98cae9a0b0001a95926,39.0,3.0 12.0,162.0
179614,3.0,668220.0,1.2,39.0,high,low-high,12.0,rod_fixing,rod_fixing,1.0,168.1400000002468,1554475234339.0,1554475234171.0,5a75c98cae9a0b0001a95926,39.0,3.0 12.0,192.0
179935,7.0,668220.0,0.3,39.0,high,low-high,12.0,rod_fixing,rod_fixing,1.0,145.1449999999604,1554475285374.0,1554475285228.0,5a75c98cae9a0b0001a95926,39.0,7.0 12.0,151.0
179936,7.0,668220.0,0.3,39.0,high,low-high,12.0,rod_fixing,rod_fixing,1.0,148.13000000000466,1554475285528.0,1554475285379.0,5a75c98cae9a0b0001a95926,39.0,7.0 12.0,153.0
179937,7.0,668220.0,0.3,39.0,high,low-high,12.0,rod_fixing,rod_fixing,1.0,179.00999999983466,1554475285712.0,1554475285532.0,5a75c98cae9a0b0001a95926,39.0,7.0 12.0,185.0
179938,7.0,668220.0,0.3,39.0,high,low-high,12.0,rod_fixing,rod_fixing,1.0,158.2250000000931,1554475285875.0,1554475285717.0,5a75c98cae9a0b0001a95926,39.0,7.0 12.0,163.0
179939,7.0,668220.0,0.3,39.0,high,low-high,12.0,rod_fixing,rod_fixing,1.0,158.26999999990218,1554475286039.0,1554475285880.0,5a75c98cae9a0b0001a95926,39.0,7.0 12.0,164.0
179940,7.0,668220.0,0.3,39.0,high,low-high,12.0,rod_fixing,rod_fixing,1.0,171.0299999999697,1554475286215.0,1554475286044.0,5a75c98cae9a0b0001a95926,39.0,7.0 12.0,347.0
180250,11.0,668220.0,0.7,39.0,high,low-high,12.0,rod_fixing,rod_fixing,1.0,116.51500000024679,1554475337814.0,1554475337697.0,5a75c98cae9a0b0001a95926,39.0,11.0 12.0,123.0
180251,11.0,668220.0,0.7,39.0,high,low-high,12.0,rod_fixing,rod_fixing,1.0,155.39500000025146,1554475337976.0,1554475337820.0,5a75c98cae9a0b0001a95926,39.0,11.0 12.0,161.0
180252,11.0,668220.0,0.7,39.0,high,low-high,12.0,rod_fixing,rod_fixing,1.0,167.6600000000326,1554475338149.0,1554475337981.0,5a75c98cae9a0b0001a95926,39.0,11.0 12.0,174.0
180253,11.0,668220.0,0.7,39.0,high,low-high,12.0,rod_fixing,rod_fixing,1.0,149.53999999992084,1554475338305.0,1554475338155.0,5a75c98cae9a0b0001a95926,39.0,11.0 12.0,155.0
180254,11.0,668220.0,0.7,39.0,high,low-high,12.0,rod_fixing,rod_fixing,1.0,157.70999999996275,1554475338468.0,1554475338310.0,5a75c98cae9a0b0001a95926,39.0,11.0 12.0,164.0
180255,11.0,668220.0,0.7,39.0,high,low-high,12.0,rod_fixing,rod_fixing,1.0,155.5100000000093,1554475338630.0,1554475338474.0,5a75c98cae9a0b0001a95926,39.0,11.0 12.0,345.0
180645,4.0,668220.0,1.8,39.0,high,low-high,22.0,rod_fixing,rod_fixing,1.0,167.46999999985565,1554475427279.0,1554475427111.0,5a75c98cae9a0b0001a95926,39.0,4.0 22.0,177.0
180646,4.0,668220.0,1.8,39.0,high,low-high,22.0,rod_fixing,rod_fixing,1.0,152.92499999993015,1554475427442.0,1554475427288.0,5a75c98cae9a0b0001a95926,39.0,4.0 22.0,158.0
180647,4.0,668220.0,1.8,39.0,high,low-high,22.0,rod_fixing,rod_fixing,1.0,158.93499999993946,1554475427605.0,1554475427446.0,5a75c98cae9a0b0001a95926,39.0,4.0 22.0,169.0
180648,4.0,668220.0,1.8,39.0,high,low-high,22.0,rod_fixing,rod_fixing,1.0,144.05999999959022,1554475427759.0,1554475427615.0,5a75c98cae9a0b0001a95926,39.0,4.0 22.0,150.0
180649,4.0,668220.0,1.8,39.0,high,low-high,22.0,rod_fixing,rod_fixing,1.0,147.23000000009782,1554475427913.0,1554475427765.0,5a75c98cae9a0b0001a95926,39.0,4.0 22.0,154.0
180650,4.0,668220.0,1.8,39.0,high,low-high,22.0,rod_fixing,rod_fixing,1.0,154.6699999999255,1554475428074.0,1554475427919.0,5a75c98cae9a0b0001a95926,39.0,4.0 22.0,340.0
180982,8.0,668220.0,0.7,39.0,high,low-high,22.0,rod_fixing,rod_fixing,1.0,166.0400000001537,1554475479775.0,1554475479609.0,5a75c98cae9a0b0001a95926,39.0,8.0 22.0,174.0
180983,8.0,668220.0,0.7,39.0,high,low-high,22.0,rod_fixing,rod_fixing,1.0,156.4100000000326,1554475479940.0,1554475479783.0,5a75c98cae9a0b0001a95926,39.0,8.0 22.0,164.0
180984,8.0,668220.0,0.7,39.0,high,low-high,22.0,rod_fixing,rod_fixing,1.0,166.13999999978114,1554475480113.0,1554475479947.0,5a75c98cae9a0b0001a95926,39.0,8.0 22.0,173.0
180985,8.0,668220.0,0.7,39.0,high,low-high,22.0,rod_fixing,rod_fixing,1.0,156.55000000016295,1554475480277.0,1554475480120.0,5a75c98cae9a0b0001a95926,39.0,8.0 22.0,164.0
180986,8.0,668220.0,0.7,39.0,high,low-high,22.0,rod_fixing,rod_fixing,1.0,160.9299999999348,1554475480446.0,1554475480284.0,5a75c98cae9a0b0001a95926,39.0,8.0 22.0,170.0
180987,8.0,668220.0,0.7,39.0,high,low-high,22.0,rod_fixing,rod_fixing,1.0,174.70000000006985,1554475480629.0,1554475480454.0,5a75c98cae9a0b0001a95926,39.0,8.0 22.0,365.0
181229,11.0,668220.0,1.2,39.0,high,low-high,22.0,rod_fixing,rod_fixing,1.0,136.59499999985565,1554475518628.0,1554475518491.0,5a75c98cae9a0b0001a95926,39.0,11.0 22.0,144.0
181230,11.0,668220.0,1.2,39.0,high,low-high,22.0,rod_fixing,rod_fixing,1.0,166.0449999999255,1554475518802.0,1554475518635.0,5a75c98cae9a0b0001a95926,39.0,11.0 22.0,174.0
181231,11.0,668220.0,1.2,39.0,high,low-high,22.0,rod_fixing,rod_fixing,1.0,165.97999999986496,1554475518975.0,1554475518809.0,5a75c98cae9a0b0001a95926,39.0,11.0 22.0,173.0
181232,11.0,668220.0,1.2,39.0,high,low-high,22.0,rod_fixing,rod_fixing,1.0,155.30500000028402,1554475519138.0,1554475518982.0,5a75c98cae9a0b0001a95926,39.0,11.0 22.0,163.0
181233,11.0,668220.0,1.2,39.0,high,low-high,22.0,rod_fixing,rod_fixing,1.0,159.29999999981374,1554475519305.0,1554475519145.0,5a75c98cae9a0b0001a95926,39.0,11.0 22.0,166.0
181234,11.0,668220.0,1.2,39.0,high,low-high,22.0,rod_fixing,rod_fixing,1.0,136.77999999979508,1554475519449.0,1554475519311.0,5a75c98cae9a0b0001a95926,39.0,11.0 22.0,305.0
181577,3.0,668225.0,0.3,39.0,low,low-high,11.0,rod_fixing,rod_fixing,1.0,205.42499981820583,1554474859729.0,1554474859523.0,5afc4671bb36f900018ef1fe,39.0,3.0 11.0,208.0
181578,3.0,668225.0,0.3,39.0,low,low-high,11.0,rod_fixing,rod_fixing,1.0,149.56000004895031,1554474859881.0,1554474859731.0,5afc4671bb36f900018ef1fe,39.0,3.0 11.0,151.0
181579,3.0,668225.0,0.3,39.0,low,low-high,11.0,rod_fixing,rod_fixing,1.0,166.16500006057322,1554474860049.0,1554474859882.0,5afc4671bb36f900018ef1fe,39.0,3.0 11.0,169.0
181580,3.0,668225.0,0.3,39.0,low,low-high,11.0,rod_fixing,rod_fixing,1.0,301.63499992340803,1554474860353.0,1554474860051.0,5afc4671bb36f900018ef1fe,39.0,3.0 11.0,303.0
181581,3.0,668225.0,0.3,39.0,low,low-high,11.0,rod_fixing,rod_fixing,1.0,142.2250000759959,1554474860497.0,1554474860354.0,5afc4671bb36f900018ef1fe,39.0,3.0 11.0,144.0
181582,3.0,668225.0,0.3,39.0,low,low-high,11.0,rod_fixing,rod_fixing,1.0,143.0149998050183,1554474860641.0,1554474860498.0,5afc4671bb36f900018ef1fe,39.0,3.0 11.0,144.0
181583,3.0,668225.0,0.3,39.0,low,low-high,11.0,rod_fixing,rod_fixing,1.0,302.2849999833852,1554474860945.0,1554474860642.0,5afc4671bb36f900018ef1fe,39.0,3.0 11.0,308.0
181779,7.0,668225.0,1.2,39.0,low,low-high,11.0,rod_fixing,rod_fixing,1.0,533.9849998708813,1554474912213.0,1554474911679.0,5afc4671bb36f900018ef1fe,39.0,7.0 11.0,536.0
181780,7.0,668225.0,1.2,39.0,low,low-high,11.0,rod_fixing,rod_fixing,1.0,157.71499997936192,1554474912373.0,1554474912215.0,5afc4671bb36f900018ef1fe,39.0,7.0 11.0,160.0
181781,7.0,668225.0,1.2,39.0,low,low-high,11.0,rod_fixing,rod_fixing,1.0,333.8949999306351,1554474912709.0,1554474912375.0,5afc4671bb36f900018ef1fe,39.0,7.0 11.0,336.0
181782,7.0,668225.0,1.2,39.0,low,low-high,11.0,rod_fixing,rod_fixing,1.0,453.75999994575983,1554474913165.0,1554474912711.0,5afc4671bb36f900018ef1fe,39.0,7.0 11.0,456.0
181783,7.0,668225.0,1.2,39.0,low,low-high,11.0,rod_fixing,rod_fixing,1.0,157.6549999881536,1554474913325.0,1554474913167.0,5afc4671bb36f900018ef1fe,39.0,7.0 11.0,160.0
181784,7.0,668225.0,1.2,39.0,low,low-high,11.0,rod_fixing,rod_fixing,1.0,174.50500000268218,1554474913502.0,1554474913327.0,5afc4671bb36f900018ef1fe,39.0,7.0 11.0,176.0
181785,7.0,668225.0,1.2,39.0,low,low-high,11.0,rod_fixing,rod_fixing,1.0,158.5899998899549,1554474913662.0,1554474913503.0,5afc4671bb36f900018ef1fe,39.0,7.0 11.0,165.0
182013,11.0,668225.0,2.5,39.0,low,low-high,11.0,rod_fixing,rod_fixing,1.0,197.914999909699,1554474964218.0,1554474964020.0,5afc4671bb36f900018ef1fe,39.0,11.0 11.0,200.0
182014,11.0,668225.0,2.5,39.0,low,low-high,11.0,rod_fixing,rod_fixing,1.0,157.40000014193356,1554474964378.0,1554474964220.0,5afc4671bb36f900018ef1fe,39.0,11.0 11.0,160.0
182015,11.0,668225.0,2.5,39.0,low,low-high,11.0,rod_fixing,rod_fixing,1.0,134.1949999332428,1554474964514.0,1554474964380.0,5afc4671bb36f900018ef1fe,39.0,11.0 11.0,136.0
182016,11.0,668225.0,2.5,39.0,low,low-high,11.0,rod_fixing,rod_fixing,1.0,126.12999998964371,1554474964642.0,1554474964516.0,5afc4671bb36f900018ef1fe,39.0,11.0 11.0,128.0
182017,11.0,668225.0,2.5,39.0,low,low-high,11.0,rod_fixing,rod_fixing,1.0,125.57499995455144,1554474964770.0,1554474964644.0,5afc4671bb36f900018ef1fe,39.0,11.0 11.0,127.0
182018,11.0,668225.0,2.5,39.0,low,low-high,11.0,rod_fixing,rod_fixing,1.0,126.60499988123777,1554474964898.0,1554474964771.0,5afc4671bb36f900018ef1fe,39.0,11.0 11.0,244.0
182409,4.0,668225.0,1.2,39.0,low,low-high,21.0,rod_fixing,rod_fixing,1.0,141.52500010095537,1554475046270.0,1554475046129.0,5afc4671bb36f900018ef1fe,39.0,4.0 21.0,144.0
182410,4.0,668225.0,1.2,39.0,low,low-high,21.0,rod_fixing,rod_fixing,1.0,204.95499996468425,1554475046478.0,1554475046273.0,5afc4671bb36f900018ef1fe,39.0,4.0 21.0,207.0
182411,4.0,668225.0,1.2,39.0,low,low-high,21.0,rod_fixing,rod_fixing,1.0,293.9800000749528,1554475046775.0,1554475046480.0,5afc4671bb36f900018ef1fe,39.0,4.0 21.0,297.0
182412,4.0,668225.0,1.2,39.0,low,low-high,21.0,rod_fixing,rod_fixing,1.0,132.70499999634922,1554475046910.0,1554475046777.0,5afc4671bb36f900018ef1fe,39.0,4.0 21.0,135.0
182413,4.0,668225.0,1.2,39.0,low,low-high,21.0,rod_fixing,rod_fixing,1.0,190.18999999389047,1554475047102.0,1554475046912.0,5afc4671bb36f900018ef1fe,39.0,4.0 21.0,193.0
182414,4.0,668225.0,1.2,39.0,low,low-high,21.0,rod_fixing,rod_fixing,1.0,357.4599998537451,1554475047462.0,1554475047105.0,5afc4671bb36f900018ef1fe,39.0,4.0 21.0,524.0
182700,8.0,668225.0,1.8,39.0,low,low-high,21.0,rod_fixing,rod_fixing,1.0,165.49500008113682,1554475099250.0,1554475099085.0,5afc4671bb36f900018ef1fe,39.0,8.0 21.0,168.0
182701,8.0,668225.0,1.8,39.0,low,low-high,21.0,rod_fixing,rod_fixing,1.0,140.99500002339482,1554475099394.0,1554475099253.0,5afc4671bb36f900018ef1fe,39.0,8.0 21.0,143.0
182702,8.0,668225.0,1.8,39.0,low,low-high,21.0,rod_fixing,rod_fixing,1.0,118.58999985270201,1554475099515.0,1554475099396.0,5afc4671bb36f900018ef1fe,39.0,8.0 21.0,121.0
182703,8.0,668225.0,1.8,39.0,low,low-high,21.0,rod_fixing,rod_fixing,1.0,133.66999989375472,1554475099651.0,1554475099517.0,5afc4671bb36f900018ef1fe,39.0,8.0 21.0,135.0
182704,8.0,668225.0,1.8,39.0,low,low-high,21.0,rod_fixing,rod_fixing,1.0,158.12499984167513,1554475099810.0,1554475099652.0,5afc4671bb36f900018ef1fe,39.0,8.0 21.0,160.0
182705,8.0,668225.0,1.8,39.0,low,low-high,21.0,rod_fixing,rod_fixing,1.0,141.7050000745803,1554475099954.0,1554475099812.0,5afc4671bb36f900018ef1fe,39.0,8.0 21.0,293.0
182849,11.0,668225.0,2.5,39.0,low,low-high,21.0,rod_fixing,rod_fixing,1.0,173.35000005550685,1554475138047.0,1554475137874.0,5afc4671bb36f900018ef1fe,39.0,11.0 21.0,176.0
182850,11.0,668225.0,2.5,39.0,low,low-high,21.0,rod_fixing,rod_fixing,1.0,300.8149999659508,1554475138351.0,1554475138050.0,5afc4671bb36f900018ef1fe,39.0,11.0 21.0,304.0
182851,11.0,668225.0,2.5,39.0,low,low-high,21.0,rod_fixing,rod_fixing,1.0,149.3750000372529,1554475138503.0,1554475138354.0,5afc4671bb36f900018ef1fe,39.0,11.0 21.0,152.0
182852,11.0,668225.0,2.5,39.0,low,low-high,21.0,rod_fixing,rod_fixing,1.0,140.67999995313585,1554475138647.0,1554475138506.0,5afc4671bb36f900018ef1fe,39.0,11.0 21.0,143.0
182853,11.0,668225.0,2.5,39.0,low,low-high,21.0,rod_fixing,rod_fixing,1.0,126.43499998375772,1554475138776.0,1554475138649.0,5afc4671bb36f900018ef1fe,39.0,11.0 21.0,129.0
182854,11.0,668225.0,2.5,39.0,low,low-high,21.0,rod_fixing,rod_fixing,1.0,140.90500003658238,1554475138919.0,1554475138778.0,5afc4671bb36f900018ef1fe,39.0,11.0 21.0,143.0
182855,11.0,668225.0,2.5,39.0,low,low-high,21.0,rod_fixing,rod_fixing,1.0,149.98500002548099,1554475139072.0,1554475138921.0,5afc4671bb36f900018ef1fe,39.0,11.0 21.0,159.0
183160,3.0,668225.0,0.3,39.0,high,low-high,12.0,rod_fixing,rod_fixing,1.0,172.64000000432134,1554475210651.0,1554475210478.0,5afc4671bb36f900018ef1fe,39.0,3.0 12.0,176.0
183161,3.0,668225.0,0.3,39.0,high,low-high,12.0,rod_fixing,rod_fixing,1.0,125.50999992527069,1554475210780.0,1554475210654.0,5afc4671bb36f900018ef1fe,39.0,3.0 12.0,128.0
183162,3.0,668225.0,0.3,39.0,high,low-high,12.0,rod_fixing,rod_fixing,1.0,229.3599999975413,1554475211012.0,1554475210782.0,5afc4671bb36f900018ef1fe,39.0,3.0 12.0,232.0
183163,3.0,668225.0,0.3,39.0,high,low-high,12.0,rod_fixing,rod_fixing,1.0,245.43999996967614,1554475211260.0,1554475211014.0,5afc4671bb36f900018ef1fe,39.0,3.0 12.0,248.0
183164,3.0,668225.0,0.3,39.0,high,low-high,12.0,rod_fixing,rod_fixing,1.0,93.21500011719765,1554475211355.0,1554475211262.0,5afc4671bb36f900018ef1fe,39.0,3.0 12.0,95.0
183165,3.0,668225.0,0.3,39.0,high,low-high,12.0,rod_fixing,rod_fixing,1.0,118.45000018365678,1554475211476.0,1554475211357.0,5afc4671bb36f900018ef1fe,39.0,3.0 12.0,255.0
183483,7.0,668225.0,1.2,39.0,high,low-high,12.0,rod_fixing,rod_fixing,1.0,117.33999988064171,1554475262576.0,1554475262459.0,5afc4671bb36f900018ef1fe,39.0,7.0 12.0,119.0
183484,7.0,668225.0,1.2,39.0,high,low-high,12.0,rod_fixing,rod_fixing,1.0,133.8700000196695,1554475262712.0,1554475262578.0,5afc4671bb36f900018ef1fe,39.0,7.0 12.0,136.0
183485,7.0,668225.0,1.2,39.0,high,low-high,12.0,rod_fixing,rod_fixing,1.0,110.06999993696807,1554475262824.0,1554475262714.0,5afc4671bb36f900018ef1fe,39.0,7.0 12.0,112.0
183486,7.0,668225.0,1.2,39.0,high,low-high,12.0,rod_fixing,rod_fixing,1.0,142.18500000424686,1554475262968.0,1554475262826.0,5afc4671bb36f900018ef1fe,39.0,7.0 12.0,145.0
183487,7.0,668225.0,1.2,39.0,high,low-high,12.0,rod_fixing,rod_fixing,1.0,125.6699999794364,1554475263097.0,1554475262971.0,5afc4671bb36f900018ef1fe,39.0,7.0 12.0,128.0
183488,7.0,668225.0,1.2,39.0,high,low-high,12.0,rod_fixing,rod_fixing,1.0,116.9950000476092,1554475263216.0,1554475263099.0,5afc4671bb36f900018ef1fe,39.0,7.0 12.0,269.0
183810,11.0,668225.0,2.5,39.0,high,low-high,12.0,rod_fixing,rod_fixing,1.0,157.2800001595169,1554475315006.0,1554475314848.0,5afc4671bb36f900018ef1fe,39.0,11.0 12.0,160.0
183811,11.0,668225.0,2.5,39.0,high,low-high,12.0,rod_fixing,rod_fixing,1.0,132.77000002563,1554475315141.0,1554475315008.0,5afc4671bb36f900018ef1fe,39.0,11.0 12.0,136.0
183812,11.0,668225.0,2.5,39.0,high,low-high,12.0,rod_fixing,rod_fixing,1.0,140.76999993994832,1554475315285.0,1554475315144.0,5afc4671bb36f900018ef1fe,39.0,11.0 12.0,144.0
183813,11.0,668225.0,2.5,39.0,high,low-high,12.0,rod_fixing,rod_fixing,1.0,277.1900000516325,1554475315566.0,1554475315288.0,5afc4671bb36f900018ef1fe,39.0,11.0 12.0,280.0
183814,11.0,668225.0,2.5,39.0,high,low-high,12.0,rod_fixing,rod_fixing,1.0,133.26000003144145,1554475315702.0,1554475315568.0,5afc4671bb36f900018ef1fe,39.0,11.0 12.0,137.0
183815,11.0,668225.0,2.5,39.0,high,low-high,12.0,rod_fixing,rod_fixing,1.0,252.53499997779727,1554475315958.0,1554475315705.0,5afc4671bb36f900018ef1fe,39.0,11.0 12.0,398.0
184196,4.0,668225.0,1.2,39.0,high,low-high,22.0,rod_fixing,rod_fixing,1.0,172.81999997794628,1554475393266.0,1554475393093.0,5afc4671bb36f900018ef1fe,39.0,4.0 22.0,176.0
184197,4.0,668225.0,1.2,39.0,high,low-high,22.0,rod_fixing,rod_fixing,1.0,132.95499980449677,1554475393403.0,1554475393269.0,5afc4671bb36f900018ef1fe,39.0,4.0 22.0,137.0
184198,4.0,668225.0,1.2,39.0,high,low-high,22.0,rod_fixing,rod_fixing,1.0,123.93000000156462,1554475393530.0,1554475393406.0,5afc4671bb36f900018ef1fe,39.0,4.0 22.0,126.0
184199,4.0,668225.0,1.2,39.0,high,low-high,22.0,rod_fixing,rod_fixing,1.0,133.46499996259809,1554475393666.0,1554475393532.0,5afc4671bb36f900018ef1fe,39.0,4.0 22.0,136.0
184200,4.0,668225.0,1.2,39.0,high,low-high,22.0,rod_fixing,rod_fixing,1.0,149.36499996110797,1554475393818.0,1554475393668.0,5afc4671bb36f900018ef1fe,39.0,4.0 22.0,153.0
184201,4.0,668225.0,1.2,39.0,high,low-high,22.0,rod_fixing,rod_fixing,1.0,132.2600001003593,1554475393954.0,1554475393821.0,5afc4671bb36f900018ef1fe,39.0,4.0 22.0,272.0
184545,8.0,668225.0,1.8,39.0,high,low-high,22.0,rod_fixing,rod_fixing,1.0,180.88499992154541,1554475445239.0,1554475445057.0,5afc4671bb36f900018ef1fe,39.0,8.0 22.0,185.0
184546,8.0,668225.0,1.8,39.0,high,low-high,22.0,rod_fixing,rod_fixing,1.0,108.73500001616777,1554475445351.0,1554475445242.0,5afc4671bb36f900018ef1fe,39.0,8.0 22.0,111.0
184547,8.0,668225.0,1.8,39.0,high,low-high,22.0,rod_fixing,rod_fixing,1.0,133.36000009439886,1554475445487.0,1554475445353.0,5afc4671bb36f900018ef1fe,39.0,8.0 22.0,136.0
184548,8.0,668225.0,1.8,39.0,high,low-high,22.0,rod_fixing,rod_fixing,1.0,124.94999985210598,1554475445615.0,1554475445489.0,5afc4671bb36f900018ef1fe,39.0,8.0 22.0,129.0
184549,8.0,668225.0,1.8,39.0,high,low-high,22.0,rod_fixing,rod_fixing,1.0,149.11500015296042,1554475445767.0,1554475445618.0,5afc4671bb36f900018ef1fe,39.0,8.0 22.0,151.0
184550,8.0,668225.0,1.8,39.0,high,low-high,22.0,rod_fixing,rod_fixing,1.0,149.22500005923212,1554475445919.0,1554475445769.0,5afc4671bb36f900018ef1fe,39.0,8.0 22.0,313.0
184777,11.0,668225.0,2.5,39.0,high,low-high,22.0,rod_fixing,rod_fixing,1.0,260.54499996826047,1554475484555.0,1554475484295.0,5afc4671bb36f900018ef1fe,39.0,11.0 22.0,264.0
184778,11.0,668225.0,2.5,39.0,high,low-high,22.0,rod_fixing,rod_fixing,1.0,132.4350000359118,1554475484691.0,1554475484559.0,5afc4671bb36f900018ef1fe,39.0,11.0 22.0,135.0
184779,11.0,668225.0,2.5,39.0,high,low-high,22.0,rod_fixing,rod_fixing,1.0,149.1749999113381,1554475484844.0,1554475484694.0,5afc4671bb36f900018ef1fe,39.0,11.0 22.0,152.0
184780,11.0,668225.0,2.5,39.0,high,low-high,22.0,rod_fixing,rod_fixing,1.0,133.0999999772757,1554475484980.0,1554475484846.0,5afc4671bb36f900018ef1fe,39.0,11.0 22.0,136.0
184781,11.0,668225.0,2.5,39.0,high,low-high,22.0,rod_fixing,rod_fixing,1.0,116.71500001102686,1554475485099.0,1554475484982.0,5afc4671bb36f900018ef1fe,39.0,11.0 22.0,120.0
184782,11.0,668225.0,2.5,39.0,high,low-high,22.0,rod_fixing,rod_fixing,1.0,149.19499983079731,1554475485251.0,1554475485102.0,5afc4671bb36f900018ef1fe,39.0,11.0 22.0,153.0
184783,11.0,668225.0,2.5,39.0,high,low-high,22.0,rod_fixing,rod_fixing,1.0,116.3749999832362,1554475485372.0,1554475485255.0,5afc4671bb36f900018ef1fe,39.0,11.0 22.0,129.0
103411,3.0,668237.0,0.7,39.0,high,high-low,11.0,rod_fixing,rod_fixing,1.0,150.02999996067956,1554475361974.0,1554475361823.0,5a2164f01a1ad3000138f7f9,39.0,3.0 11.0,160.0
103412,3.0,668237.0,0.7,39.0,high,high-low,11.0,rod_fixing,rod_fixing,1.0,156.1249999795109,1554475362141.0,1554475361983.0,5a2164f01a1ad3000138f7f9,39.0,3.0 11.0,167.0
103413,3.0,668237.0,0.7,39.0,high,high-low,11.0,rod_fixing,rod_fixing,1.0,137.09000003291294,1554475362288.0,1554475362150.0,5a2164f01a1ad3000138f7f9,39.0,3.0 11.0,143.0
103414,3.0,668237.0,0.7,39.0,high,high-low,11.0,rod_fixing,rod_fixing,1.0,152.07000001100823,1554475362447.0,1554475362293.0,5a2164f01a1ad3000138f7f9,39.0,3.0 11.0,159.0
103415,3.0,668237.0,0.7,39.0,high,high-low,11.0,rod_fixing,rod_fixing,1.0,152.48499996960163,1554475362605.0,1554475362452.0,5a2164f01a1ad3000138f7f9,39.0,3.0 11.0,157.0
103416,3.0,668237.0,0.7,39.0,high,high-low,11.0,rod_fixing,rod_fixing,1.0,163.2850000169128,1554475362773.0,1554475362609.0,5a2164f01a1ad3000138f7f9,39.0,3.0 11.0,358.0
103700,7.0,668237.0,2.5,39.0,high,high-low,11.0,rod_fixing,rod_fixing,1.0,166.71499999938533,1554475414464.0,1554475414296.0,5a2164f01a1ad3000138f7f9,39.0,7.0 11.0,175.0
103701,7.0,668237.0,2.5,39.0,high,high-low,11.0,rod_fixing,rod_fixing,1.0,114.72500005038457,1554475414588.0,1554475414471.0,5a2164f01a1ad3000138f7f9,39.0,7.0 11.0,124.0
103702,7.0,668237.0,2.5,39.0,high,high-low,11.0,rod_fixing,rod_fixing,1.0,117.3149999813177,1554475414713.0,1554475414595.0,5a2164f01a1ad3000138f7f9,39.0,7.0 11.0,125.0
103703,7.0,668237.0,2.5,39.0,high,high-low,11.0,rod_fixing,rod_fixing,1.0,134.09999996656552,1554475414855.0,1554475414720.0,5a2164f01a1ad3000138f7f9,39.0,7.0 11.0,141.0
103704,7.0,668237.0,2.5,39.0,high,high-low,11.0,rod_fixing,rod_fixing,1.0,138.55500001227483,1554475415000.0,1554475414861.0,5a2164f01a1ad3000138f7f9,39.0,7.0 11.0,144.0
103705,7.0,668237.0,2.5,39.0,high,high-low,11.0,rod_fixing,rod_fixing,1.0,151.91499999491498,1554475415159.0,1554475415005.0,5a2164f01a1ad3000138f7f9,39.0,7.0 11.0,312.0
103997,11.0,668237.0,1.2,39.0,high,high-low,11.0,rod_fixing,rod_fixing,1.0,178.88500000117347,1554475467118.0,1554475466938.0,5a2164f01a1ad3000138f7f9,39.0,11.0 11.0,186.0
103998,11.0,668237.0,1.2,39.0,high,high-low,11.0,rod_fixing,rod_fixing,1.0,151.67500003008172,1554475467277.0,1554475467124.0,5a2164f01a1ad3000138f7f9,39.0,11.0 11.0,161.0
103999,11.0,668237.0,1.2,39.0,high,high-low,11.0,rod_fixing,rod_fixing,1.0,153.11000001383943,1554475467440.0,1554475467285.0,5a2164f01a1ad3000138f7f9,39.0,11.0 11.0,161.0
104000,11.0,668237.0,1.2,39.0,high,high-low,11.0,rod_fixing,rod_fixing,1.0,155.37499997299162,1554475467603.0,1554475467446.0,5a2164f01a1ad3000138f7f9,39.0,11.0 11.0,164.0
104001,11.0,668237.0,1.2,39.0,high,high-low,11.0,rod_fixing,rod_fixing,1.0,153.62500003539023,1554475467765.0,1554475467610.0,5a2164f01a1ad3000138f7f9,39.0,11.0 11.0,162.0
104002,11.0,668237.0,1.2,39.0,high,high-low,11.0,rod_fixing,rod_fixing,1.0,153.4600000013597,1554475467926.0,1554475467772.0,5a2164f01a1ad3000138f7f9,39.0,11.0 11.0,353.0
104377,4.0,668237.0,0.3,39.0,high,high-low,21.0,rod_fixing,rod_fixing,1.0,136.9249999988824,1554475542626.0,1554475542487.0,5a2164f01a1ad3000138f7f9,39.0,4.0 21.0,147.0
104378,4.0,668237.0,0.3,39.0,high,high-low,21.0,rod_fixing,rod_fixing,1.0,143.21000000927597,1554475542779.0,1554475542634.0,5a2164f01a1ad3000138f7f9,39.0,4.0 21.0,154.0
104379,4.0,668237.0,0.3,39.0,high,high-low,21.0,rod_fixing,rod_fixing,1.0,145.96500003244728,1554475542936.0,1554475542788.0,5a2164f01a1ad3000138f7f9,39.0,4.0 21.0,160.0
104380,4.0,668237.0,0.3,39.0,high,high-low,21.0,rod_fixing,rod_fixing,1.0,143.37000000523403,1554475543093.0,1554475542948.0,5a2164f01a1ad3000138f7f9,39.0,4.0 21.0,157.0
104381,4.0,668237.0,0.3,39.0,high,high-low,21.0,rod_fixing,rod_fixing,1.0,148.75500003108758,1554475543255.0,1554475543105.0,5a2164f01a1ad3000138f7f9,39.0,4.0 21.0,158.0
104382,4.0,668237.0,0.3,39.0,high,high-low,21.0,rod_fixing,rod_fixing,1.0,140.40499995462594,1554475543404.0,1554475543263.0,5a2164f01a1ad3000138f7f9,39.0,4.0 21.0,151.0
104383,4.0,668237.0,0.3,39.0,high,high-low,21.0,rod_fixing,rod_fixing,1.0,136.65000000037253,1554475543552.0,1554475543414.0,5a2164f01a1ad3000138f7f9,39.0,4.0 21.0,177.0
104697,8.0,668237.0,0.3,39.0,high,high-low,21.0,rod_fixing,rod_fixing,1.0,158.52500003529713,1554475595015.0,1554475594856.0,5a2164f01a1ad3000138f7f9,39.0,8.0 21.0,169.0
104698,8.0,668237.0,0.3,39.0,high,high-low,21.0,rod_fixing,rod_fixing,1.0,152.83500001532957,1554475595179.0,1554475595025.0,5a2164f01a1ad3000138f7f9,39.0,8.0 21.0,159.0
104699,8.0,668237.0,0.3,39.0,high,high-low,21.0,rod_fixing,rod_fixing,1.0,162.36499999649826,1554475595347.0,1554475595184.0,5a2164f01a1ad3000138f7f9,39.0,8.0 21.0,172.0
104700,8.0,668237.0,0.3,39.0,high,high-low,21.0,rod_fixing,rod_fixing,1.0,170.64500000560656,1554475595527.0,1554475595356.0,5a2164f01a1ad3000138f7f9,39.0,8.0 21.0,181.0
104701,8.0,668237.0,0.3,39.0,high,high-low,21.0,rod_fixing,rod_fixing,1.0,163.07000000961125,1554475595702.0,1554475595537.0,5a2164f01a1ad3000138f7f9,39.0,8.0 21.0,176.0
104702,8.0,668237.0,0.3,39.0,high,high-low,21.0,rod_fixing,rod_fixing,1.0,157.26500004529953,1554475595871.0,1554475595713.0,5a2164f01a1ad3000138f7f9,39.0,8.0 21.0,170.0
104703,8.0,668237.0,0.3,39.0,high,high-low,21.0,rod_fixing,rod_fixing,1.0,152.95000001788142,1554475596037.0,1554475595883.0,5a2164f01a1ad3000138f7f9,39.0,8.0 21.0,188.0
104878,11.0,668237.0,1.8,39.0,high,high-low,21.0,rod_fixing,rod_fixing,1.0,129.14999999338758,1554475634293.0,1554475634163.0,5a2164f01a1ad3000138f7f9,39.0,11.0 21.0,143.0
104879,11.0,668237.0,1.8,39.0,high,high-low,21.0,rod_fixing,rod_fixing,1.0,133.9799999841489,1554475634441.0,1554475634306.0,5a2164f01a1ad3000138f7f9,39.0,11.0 21.0,145.0
104880,11.0,668237.0,1.8,39.0,high,high-low,21.0,rod_fixing,rod_fixing,1.0,148.25499994913116,1554475634601.0,1554475634451.0,5a2164f01a1ad3000138f7f9,39.0,11.0 21.0,162.0
104881,11.0,668237.0,1.8,39.0,high,high-low,21.0,rod_fixing,rod_fixing,1.0,150.4399999976158,1554475634765.0,1554475634613.0,5a2164f01a1ad3000138f7f9,39.0,11.0 21.0,164.0
104882,11.0,668237.0,1.8,39.0,high,high-low,21.0,rod_fixing,rod_fixing,1.0,157.1150000090711,1554475634936.0,1554475634777.0,5a2164f01a1ad3000138f7f9,39.0,11.0 21.0,173.0
104883,11.0,668237.0,1.8,39.0,high,high-low,21.0,rod_fixing,rod_fixing,1.0,143.09999998658898,1554475635095.0,1554475634950.0,5a2164f01a1ad3000138f7f9,39.0,11.0 21.0,309.0
105205,3.0,668237.0,0.7,39.0,low,high-low,12.0,rod_fixing,rod_fixing,1.0,140.76999999815598,1554475722664.0,1554475722522.0,5a2164f01a1ad3000138f7f9,39.0,3.0 12.0,156.0
105206,3.0,668237.0,0.7,39.0,low,high-low,12.0,rod_fixing,rod_fixing,1.0,142.72499998332933,1554475722822.0,1554475722678.0,5a2164f01a1ad3000138f7f9,39.0,3.0 12.0,154.0
105207,3.0,668237.0,0.7,39.0,low,high-low,12.0,rod_fixing,rod_fixing,1.0,128.00999998580664,1554475722961.0,1554475722832.0,5a2164f01a1ad3000138f7f9,39.0,3.0 12.0,139.0
105208,3.0,668237.0,0.7,39.0,low,high-low,12.0,rod_fixing,rod_fixing,1.0,150.71000001626092,1554475723123.0,1554475722971.0,5a2164f01a1ad3000138f7f9,39.0,3.0 12.0,160.0
105209,3.0,668237.0,0.7,39.0,low,high-low,12.0,rod_fixing,rod_fixing,1.0,138.40499997604638,1554475723270.0,1554475723131.0,5a2164f01a1ad3000138f7f9,39.0,3.0 12.0,152.0
105210,3.0,668237.0,0.7,39.0,low,high-low,12.0,rod_fixing,rod_fixing,1.0,132.48000002931803,1554475723417.0,1554475723283.0,5a2164f01a1ad3000138f7f9,39.0,3.0 12.0,314.0
105494,7.0,668237.0,2.5,39.0,low,high-low,12.0,rod_fixing,rod_fixing,1.0,137.9949999973178,1554475774886.0,1554475774747.0,5a2164f01a1ad3000138f7f9,39.0,7.0 12.0,154.0
105495,7.0,668237.0,2.5,39.0,low,high-low,12.0,rod_fixing,rod_fixing,1.0,157.6350000104867,1554475775060.0,1554475774901.0,5a2164f01a1ad3000138f7f9,39.0,7.0 12.0,173.0
105496,7.0,668237.0,2.5,39.0,low,high-low,12.0,rod_fixing,rod_fixing,1.0,134.9599999957718,1554475775210.0,1554475775074.0,5a2164f01a1ad3000138f7f9,39.0,7.0 12.0,149.0
105497,7.0,668237.0,2.5,39.0,low,high-low,12.0,rod_fixing,rod_fixing,1.0,140.11500001652166,1554475775363.0,1554475775223.0,5a2164f01a1ad3000138f7f9,39.0,7.0 12.0,154.0
105498,7.0,668237.0,2.5,39.0,low,high-low,12.0,rod_fixing,rod_fixing,1.0,121.21500005014241,1554475775500.0,1554475775377.0,5a2164f01a1ad3000138f7f9,39.0,7.0 12.0,134.0
105499,7.0,668237.0,2.5,39.0,low,high-low,12.0,rod_fixing,rod_fixing,1.0,112.76500002713873,1554475775625.0,1554475775511.0,5a2164f01a1ad3000138f7f9,39.0,7.0 12.0,301.0
105792,11.0,668237.0,1.2,39.0,low,high-low,12.0,rod_fixing,rod_fixing,1.0,133.5500000277534,1554475827603.0,1554475827468.0,5a2164f01a1ad3000138f7f9,39.0,11.0 12.0,150.0
105793,11.0,668237.0,1.2,39.0,low,high-low,12.0,rod_fixing,rod_fixing,1.0,144.92000004975125,1554475827764.0,1554475827618.0,5a2164f01a1ad3000138f7f9,39.0,11.0 12.0,162.0
105794,11.0,668237.0,1.2,39.0,low,high-low,12.0,rod_fixing,rod_fixing,1.0,134.39500000094995,1554475827915.0,1554475827780.0,5a2164f01a1ad3000138f7f9,39.0,11.0 12.0,152.0
105795,11.0,668237.0,1.2,39.0,low,high-low,12.0,rod_fixing,rod_fixing,1.0,143.64000002387908,1554475828076.0,1554475827932.0,5a2164f01a1ad3000138f7f9,39.0,11.0 12.0,158.0
105796,11.0,668237.0,1.2,39.0,low,high-low,12.0,rod_fixing,rod_fixing,1.0,141.91999996546656,1554475828234.0,1554475828090.0,5a2164f01a1ad3000138f7f9,39.0,11.0 12.0,158.0
105797,11.0,668237.0,1.2,39.0,low,high-low,12.0,rod_fixing,rod_fixing,1.0,141.15000003948808,1554475828391.0,1554475828248.0,5a2164f01a1ad3000138f7f9,39.0,11.0 12.0,351.0
106458,8.0,668237.0,0.3,39.0,low,high-low,22.0,rod_fixing,rod_fixing,1.0,161.68000001925975,1554475951175.0,1554475951012.0,5a2164f01a1ad3000138f7f9,39.0,8.0 22.0,180.0
106459,8.0,668237.0,0.3,39.0,low,high-low,22.0,rod_fixing,rod_fixing,1.0,207.53499999409541,1554475951401.0,1554475951192.0,5a2164f01a1ad3000138f7f9,39.0,8.0 22.0,225.0
106460,8.0,668237.0,0.3,39.0,low,high-low,22.0,rod_fixing,rod_fixing,1.0,204.78500000899655,1554475951622.0,1554475951417.0,5a2164f01a1ad3000138f7f9,39.0,8.0 22.0,224.0
106461,8.0,668237.0,0.3,39.0,low,high-low,22.0,rod_fixing,rod_fixing,1.0,181.54000001959503,1554475951823.0,1554475951641.0,5a2164f01a1ad3000138f7f9,39.0,8.0 22.0,202.0
106462,8.0,668237.0,0.3,39.0,low,high-low,22.0,rod_fixing,rod_fixing,1.0,174.49499998474494,1554475952019.0,1554475951843.0,5a2164f01a1ad3000138f7f9,39.0,8.0 22.0,187.0
106463,8.0,668237.0,0.3,39.0,low,high-low,22.0,rod_fixing,rod_fixing,1.0,195.77500002924356,1554475952227.0,1554475952030.0,5a2164f01a1ad3000138f7f9,39.0,8.0 22.0,213.0
106464,8.0,668237.0,0.3,39.0,low,high-low,22.0,rod_fixing,rod_fixing,1.0,191.37999997474256,1554475952436.0,1554475952243.0,5a2164f01a1ad3000138f7f9,39.0,8.0 22.0,239.0
106645,11.0,668237.0,1.8,39.0,low,high-low,22.0,rod_fixing,rod_fixing,1.0,170.73000001255426,1554475990452.0,1554475990280.0,5a2164f01a1ad3000138f7f9,39.0,11.0 22.0,188.0
106646,11.0,668237.0,1.8,39.0,low,high-low,22.0,rod_fixing,rod_fixing,1.0,128.41000000480562,1554475990598.0,1554475990468.0,5a2164f01a1ad3000138f7f9,39.0,11.0 22.0,144.0
106647,11.0,668237.0,1.8,39.0,low,high-low,22.0,rod_fixing,rod_fixing,1.0,153.64000003319234,1554475990767.0,1554475990612.0,5a2164f01a1ad3000138f7f9,39.0,11.0 22.0,170.0
106648,11.0,668237.0,1.8,39.0,low,high-low,22.0,rod_fixing,rod_fixing,1.0,145.79500001855197,1554475990929.0,1554475990782.0,5a2164f01a1ad3000138f7f9,39.0,11.0 22.0,166.0
106649,11.0,668237.0,1.8,39.0,low,high-low,22.0,rod_fixing,rod_fixing,1.0,152.8800000087358,1554475991102.0,1554475990948.0,5a2164f01a1ad3000138f7f9,39.0,11.0 22.0,175.0
106650,11.0,668237.0,1.8,39.0,low,high-low,22.0,rod_fixing,rod_fixing,1.0,143.5850000125356,1554475991268.0,1554475991123.0,5a2164f01a1ad3000138f7f9,39.0,11.0 22.0,160.0
106995,3.0,668239.0,0.7,39.0,high,high-low,11.0,rod_fixing,rod_fixing,1.0,128.7300000039977,1554475242042.0,1554475241913.0,5af6a7cde066a40001134a37,39.0,3.0 11.0,130.0
106996,3.0,668239.0,0.7,39.0,high,high-low,11.0,rod_fixing,rod_fixing,1.0,127.76999999914551,1554475242171.0,1554475242043.0,5af6a7cde066a40001134a37,39.0,3.0 11.0,129.0
106997,3.0,668239.0,0.7,39.0,high,high-low,11.0,rod_fixing,rod_fixing,1.0,129.30999999662166,1554475242302.0,1554475242172.0,5af6a7cde066a40001134a37,39.0,3.0 11.0,132.0
106998,3.0,668239.0,0.7,39.0,high,high-low,11.0,rod_fixing,rod_fixing,1.0,124.27499999466818,1554475242429.0,1554475242304.0,5af6a7cde066a40001134a37,39.0,3.0 11.0,127.0
106999,3.0,668239.0,0.7,39.0,high,high-low,11.0,rod_fixing,rod_fixing,1.0,129.77499999396971,1554475242561.0,1554475242431.0,5af6a7cde066a40001134a37,39.0,3.0 11.0,131.0
107000,3.0,668239.0,0.7,39.0,high,high-low,11.0,rod_fixing,rod_fixing,1.0,129.20000000303844,1554475242692.0,1554475242562.0,5af6a7cde066a40001134a37,39.0,3.0 11.0,263.0
107358,7.0,668239.0,2.5,39.0,high,high-low,11.0,rod_fixing,rod_fixing,1.0,257.7700000038021,1554475293769.0,1554475293511.0,5af6a7cde066a40001134a37,39.0,7.0 11.0,265.0
107359,7.0,668239.0,2.5,39.0,high,high-low,11.0,rod_fixing,rod_fixing,1.0,129.03499999811172,1554475293905.0,1554475293776.0,5af6a7cde066a40001134a37,39.0,7.0 11.0,131.0
107360,7.0,668239.0,2.5,39.0,high,high-low,11.0,rod_fixing,rod_fixing,1.0,137.8499999991618,1554475294045.0,1554475293907.0,5af6a7cde066a40001134a37,39.0,7.0 11.0,139.0
107361,7.0,668239.0,2.5,39.0,high,high-low,11.0,rod_fixing,rod_fixing,1.0,135.67999999941094,1554475294182.0,1554475294046.0,5af6a7cde066a40001134a37,39.0,7.0 11.0,138.0
107362,7.0,668239.0,2.5,39.0,high,high-low,11.0,rod_fixing,rod_fixing,1.0,137.39499999792315,1554475294321.0,1554475294184.0,5af6a7cde066a40001134a37,39.0,7.0 11.0,141.0
107363,7.0,668239.0,2.5,39.0,high,high-low,11.0,rod_fixing,rod_fixing,1.0,132.64999999955762,1554475294458.0,1554475294325.0,5af6a7cde066a40001134a37,39.0,7.0 11.0,134.0
107364,7.0,668239.0,2.5,39.0,high,high-low,11.0,rod_fixing,rod_fixing,1.0,132.51499999751104,1554475294592.0,1554475294459.0,5af6a7cde066a40001134a37,39.0,7.0 11.0,137.0
107706,11.0,668239.0,0.3,39.0,high,high-low,11.0,rod_fixing,rod_fixing,1.0,145.80500000010943,1554475345912.0,1554475345766.0,5af6a7cde066a40001134a37,39.0,11.0 11.0,148.0
107707,11.0,668239.0,0.3,39.0,high,high-low,11.0,rod_fixing,rod_fixing,1.0,125.63500000396743,1554475346040.0,1554475345914.0,5af6a7cde066a40001134a37,39.0,11.0 11.0,127.0
107708,11.0,668239.0,0.3,39.0,high,high-low,11.0,rod_fixing,rod_fixing,1.0,140.00499999383464,1554475346181.0,1554475346041.0,5af6a7cde066a40001134a37,39.0,11.0 11.0,141.0
107709,11.0,668239.0,0.3,39.0,high,high-low,11.0,rod_fixing,rod_fixing,1.0,138.0799999969895,1554475346321.0,1554475346182.0,5af6a7cde066a40001134a37,39.0,11.0 11.0,140.0
107710,11.0,668239.0,0.3,39.0,high,high-low,11.0,rod_fixing,rod_fixing,1.0,140.41500000166707,1554475346462.0,1554475346322.0,5af6a7cde066a40001134a37,39.0,11.0 11.0,142.0
107711,11.0,668239.0,0.3,39.0,high,high-low,11.0,rod_fixing,rod_fixing,1.0,140.80500000272878,1554475346605.0,1554475346464.0,5af6a7cde066a40001134a37,39.0,11.0 11.0,146.0
107712,11.0,668239.0,0.3,39.0,high,high-low,11.0,rod_fixing,rod_fixing,1.0,136.87999999820022,1554475346748.0,1554475346610.0,5af6a7cde066a40001134a37,39.0,11.0 11.0,142.0
108179,4.0,668239.0,0.1,39.0,high,high-low,21.0,rod_fixing,rod_fixing,1.0,115.49999999988357,1554475468677.0,1554475468561.0,5af6a7cde066a40001134a37,39.0,4.0 21.0,117.0
108180,4.0,668239.0,0.1,39.0,high,high-low,21.0,rod_fixing,rod_fixing,1.0,121.12499999784632,1554475468800.0,1554475468678.0,5af6a7cde066a40001134a37,39.0,4.0 21.0,124.0
108181,4.0,668239.0,0.1,39.0,high,high-low,21.0,rod_fixing,rod_fixing,1.0,135.9950000041863,1554475468938.0,1554475468802.0,5af6a7cde066a40001134a37,39.0,4.0 21.0,138.0
108182,4.0,668239.0,0.1,39.0,high,high-low,21.0,rod_fixing,rod_fixing,1.0,127.16000000364149,1554475469068.0,1554475468940.0,5af6a7cde066a40001134a37,39.0,4.0 21.0,129.0
108183,4.0,668239.0,0.1,39.0,high,high-low,21.0,rod_fixing,rod_fixing,1.0,129.8049999968498,1554475469200.0,1554475469069.0,5af6a7cde066a40001134a37,39.0,4.0 21.0,429.0
108533,8.0,668239.0,0.7,39.0,high,high-low,21.0,rod_fixing,rod_fixing,1.0,136.90499999938766,1554475521304.0,1554475521167.0,5af6a7cde066a40001134a37,39.0,8.0 21.0,139.0
108534,8.0,668239.0,0.7,39.0,high,high-low,21.0,rod_fixing,rod_fixing,1.0,112.59500000596745,1554475521418.0,1554475521306.0,5af6a7cde066a40001134a37,39.0,8.0 21.0,114.0
108535,8.0,668239.0,0.7,39.0,high,high-low,21.0,rod_fixing,rod_fixing,1.0,124.36499999603257,1554475521544.0,1554475521420.0,5af6a7cde066a40001134a37,39.0,8.0 21.0,126.0
108536,8.0,668239.0,0.7,39.0,high,high-low,21.0,rod_fixing,rod_fixing,1.0,130.85500000306638,1554475521677.0,1554475521546.0,5af6a7cde066a40001134a37,39.0,8.0 21.0,134.0
108537,8.0,668239.0,0.7,39.0,high,high-low,21.0,rod_fixing,rod_fixing,1.0,123.35000000166474,1554475521803.0,1554475521680.0,5af6a7cde066a40001134a37,39.0,8.0 21.0,496.0
108808,11.0,668239.0,1.2,39.0,high,high-low,21.0,rod_fixing,rod_fixing,1.0,139.790000001085,1554475560302.0,1554475560162.0,5af6a7cde066a40001134a37,39.0,11.0 21.0,146.0
108809,11.0,668239.0,1.2,39.0,high,high-low,21.0,rod_fixing,rod_fixing,1.0,126.74999999580903,1554475560435.0,1554475560308.0,5af6a7cde066a40001134a37,39.0,11.0 21.0,129.0
108810,11.0,668239.0,1.2,39.0,high,high-low,21.0,rod_fixing,rod_fixing,1.0,123.8249999951222,1554475560562.0,1554475560437.0,5af6a7cde066a40001134a37,39.0,11.0 21.0,126.0
108811,11.0,668239.0,1.2,39.0,high,high-low,21.0,rod_fixing,rod_fixing,1.0,130.1099999982398,1554475560693.0,1554475560563.0,5af6a7cde066a40001134a37,39.0,11.0 21.0,134.0
108812,11.0,668239.0,1.2,39.0,high,high-low,21.0,rod_fixing,rod_fixing,1.0,117.47000000468687,1554475560815.0,1554475560697.0,5af6a7cde066a40001134a37,39.0,11.0 21.0,124.0
108813,11.0,668239.0,1.2,39.0,high,high-low,21.0,rod_fixing,rod_fixing,1.0,97.37499999755528,1554475560919.0,1554475560821.0,5af6a7cde066a40001134a37,39.0,11.0 21.0,244.0
109159,3.0,668239.0,0.7,39.0,low,high-low,12.0,rod_fixing,rod_fixing,1.0,136.27000000269618,1554475695964.0,1554475695827.0,5af6a7cde066a40001134a37,39.0,3.0 12.0,142.0
109160,3.0,668239.0,0.7,39.0,low,high-low,12.0,rod_fixing,rod_fixing,1.0,132.28499999968335,1554475696101.0,1554475695969.0,5af6a7cde066a40001134a37,39.0,3.0 12.0,134.0
109161,3.0,668239.0,0.7,39.0,low,high-low,12.0,rod_fixing,rod_fixing,1.0,130.07999999535969,1554475696234.0,1554475696103.0,5af6a7cde066a40001134a37,39.0,3.0 12.0,134.0
109162,3.0,668239.0,0.7,39.0,low,high-low,12.0,rod_fixing,rod_fixing,1.0,129.33000000339234,1554475696367.0,1554475696237.0,5af6a7cde066a40001134a37,39.0,3.0 12.0,134.0
109163,3.0,668239.0,0.7,39.0,low,high-low,12.0,rod_fixing,rod_fixing,1.0,142.13500000187196,1554475696513.0,1554475696371.0,5af6a7cde066a40001134a37,39.0,3.0 12.0,144.0
109164,3.0,668239.0,0.7,39.0,low,high-low,12.0,rod_fixing,rod_fixing,1.0,136.8099999963306,1554475696652.0,1554475696515.0,5af6a7cde066a40001134a37,39.0,3.0 12.0,139.0
109165,3.0,668239.0,0.7,39.0,low,high-low,12.0,rod_fixing,rod_fixing,1.0,145.8100000018021,1554475696801.0,1554475696654.0,5af6a7cde066a40001134a37,39.0,3.0 12.0,163.0
109492,7.0,668239.0,2.5,39.0,low,high-low,12.0,rod_fixing,rod_fixing,1.0,132.6249999983702,1554475748942.0,1554475748809.0,5af6a7cde066a40001134a37,39.0,7.0 12.0,135.0
109493,7.0,668239.0,2.5,39.0,low,high-low,12.0,rod_fixing,rod_fixing,1.0,130.3649999973131,1554475749075.0,1554475748944.0,5af6a7cde066a40001134a37,39.0,7.0 12.0,133.0
109494,7.0,668239.0,2.5,39.0,low,high-low,12.0,rod_fixing,rod_fixing,1.0,143.46500000101514,1554475749221.0,1554475749077.0,5af6a7cde066a40001134a37,39.0,7.0 12.0,147.0
109495,7.0,668239.0,2.5,39.0,low,high-low,12.0,rod_fixing,rod_fixing,1.0,147.85999999730848,1554475749372.0,1554475749224.0,5af6a7cde066a40001134a37,39.0,7.0 12.0,155.0
109496,7.0,668239.0,2.5,39.0,low,high-low,12.0,rod_fixing,rod_fixing,1.0,135.31000000506174,1554475749515.0,1554475749379.0,5af6a7cde066a40001134a37,39.0,7.0 12.0,138.0
109497,7.0,668239.0,2.5,39.0,low,high-low,12.0,rod_fixing,rod_fixing,1.0,138.14499999722466,1554475749656.0,1554475749517.0,5af6a7cde066a40001134a37,39.0,7.0 12.0,290.0
109817,11.0,668239.0,0.3,39.0,low,high-low,12.0,rod_fixing,rod_fixing,1.0,164.64999999885913,1554475800620.0,1554475800455.0,5af6a7cde066a40001134a37,39.0,11.0 12.0,167.0
109818,11.0,668239.0,0.3,39.0,low,high-low,12.0,rod_fixing,rod_fixing,1.0,121.26500000152737,1554475800743.0,1554475800622.0,5af6a7cde066a40001134a37,39.0,11.0 12.0,124.0
109819,11.0,668239.0,0.3,39.0,low,high-low,12.0,rod_fixing,rod_fixing,1.0,126.04500000446569,1554475800872.0,1554475800746.0,5af6a7cde066a40001134a37,39.0,11.0 12.0,128.0
109820,11.0,668239.0,0.3,39.0,low,high-low,12.0,rod_fixing,rod_fixing,1.0,136.71500000054948,1554475801011.0,1554475800874.0,5af6a7cde066a40001134a37,39.0,11.0 12.0,141.0
109821,11.0,668239.0,0.3,39.0,low,high-low,12.0,rod_fixing,rod_fixing,1.0,139.0200000023469,1554475801154.0,1554475801015.0,5af6a7cde066a40001134a37,39.0,11.0 12.0,141.0
109822,11.0,668239.0,0.3,39.0,low,high-low,12.0,rod_fixing,rod_fixing,1.0,142.25000000442378,1554475801298.0,1554475801156.0,5af6a7cde066a40001134a37,39.0,11.0 12.0,318.0
110255,4.0,668239.0,0.1,39.0,low,high-low,22.0,rod_fixing,rod_fixing,1.0,124.94499999599066,1554475946091.0,1554475945966.0,5af6a7cde066a40001134a37,39.0,4.0 22.0,128.0
110256,4.0,668239.0,0.1,39.0,low,high-low,22.0,rod_fixing,rod_fixing,1.0,123.50500000326427,1554475946217.0,1554475946094.0,5af6a7cde066a40001134a37,39.0,4.0 22.0,126.0
110257,4.0,668239.0,0.1,39.0,low,high-low,22.0,rod_fixing,rod_fixing,1.0,126.104999995674,1554475946347.0,1554475946220.0,5af6a7cde066a40001134a37,39.0,4.0 22.0,133.0
110258,4.0,668239.0,0.1,39.0,low,high-low,22.0,rod_fixing,rod_fixing,1.0,118.705000000773,1554475946472.0,1554475946353.0,5af6a7cde066a40001134a37,39.0,4.0 22.0,121.0
110259,4.0,668239.0,0.1,39.0,low,high-low,22.0,rod_fixing,rod_fixing,1.0,117.14500000374392,1554475946592.0,1554475946474.0,5af6a7cde066a40001134a37,39.0,4.0 22.0,123.0
110260,4.0,668239.0,0.1,39.0,low,high-low,22.0,rod_fixing,rod_fixing,1.0,114.97999999846796,1554475946712.0,1554475946597.0,5af6a7cde066a40001134a37,39.0,4.0 22.0,252.0
110603,8.0,668239.0,0.7,39.0,low,high-low,22.0,rod_fixing,rod_fixing,1.0,126.32500000472645,1554475999078.0,1554475998951.0,5af6a7cde066a40001134a37,39.0,8.0 22.0,135.0
110604,8.0,668239.0,0.7,39.0,low,high-low,22.0,rod_fixing,rod_fixing,1.0,108.18499999737831,1554475999195.0,1554475999086.0,5af6a7cde066a40001134a37,39.0,8.0 22.0,112.0
110605,8.0,668239.0,0.7,39.0,low,high-low,22.0,rod_fixing,rod_fixing,1.0,126.82500000670551,1554475999325.0,1554475999198.0,5af6a7cde066a40001134a37,39.0,8.0 22.0,132.0
110606,8.0,668239.0,0.7,39.0,low,high-low,22.0,rod_fixing,rod_fixing,1.0,123.07000000146219,1554475999454.0,1554475999330.0,5af6a7cde066a40001134a37,39.0,8.0 22.0,126.0
110607,8.0,668239.0,0.7,39.0,low,high-low,22.0,rod_fixing,rod_fixing,1.0,122.66000000084749,1554475999579.0,1554475999456.0,5af6a7cde066a40001134a37,39.0,8.0 22.0,125.0
110608,8.0,668239.0,0.7,39.0,low,high-low,22.0,rod_fixing,rod_fixing,1.0,113.44000000087543,1554475999694.0,1554475999581.0,5af6a7cde066a40001134a37,39.0,8.0 22.0,236.0
110865,11.0,668239.0,1.2,39.0,low,high-low,22.0,rod_fixing,rod_fixing,1.0,129.0500000033062,1554476037627.0,1554476037497.0,5af6a7cde066a40001134a37,39.0,11.0 22.0,134.0
110866,11.0,668239.0,1.2,39.0,low,high-low,22.0,rod_fixing,rod_fixing,1.0,119.2349999982398,1554476037751.0,1554476037631.0,5af6a7cde066a40001134a37,39.0,11.0 22.0,123.0
110867,11.0,668239.0,1.2,39.0,low,high-low,22.0,rod_fixing,rod_fixing,1.0,133.95500000473112,1554476037888.0,1554476037754.0,5af6a7cde066a40001134a37,39.0,11.0 22.0,142.0
110868,11.0,668239.0,1.2,39.0,low,high-low,22.0,rod_fixing,rod_fixing,1.0,130.47499999799766,1554476038027.0,1554476037896.0,5af6a7cde066a40001134a37,39.0,11.0 22.0,133.0
110869,11.0,668239.0,1.2,39.0,low,high-low,22.0,rod_fixing,rod_fixing,1.0,118.12500000093132,1554476038148.0,1554476038029.0,5af6a7cde066a40001134a37,39.0,11.0 22.0,121.0
110870,11.0,668239.0,1.2,39.0,low,high-low,22.0,rod_fixing,rod_fixing,1.0,122.9349999994738,1554476038273.0,1554476038150.0,5af6a7cde066a40001134a37,39.0,11.0 22.0,253.0
185124,3.0,668240.0,0.3,39.0,low,low-high,11.0,rod_fixing,rod_fixing,1.0,163.0,1554475473160.0,1554475472996.0,59220a3e9098900001b55aaa,39.0,3.0 11.0,166.0
185125,3.0,668240.0,0.3,39.0,low,low-high,11.0,rod_fixing,rod_fixing,1.0,199.0,1554475473360.0,1554475473162.0,59220a3e9098900001b55aaa,39.0,3.0 11.0,201.0
185126,3.0,668240.0,0.3,39.0,low,low-high,11.0,rod_fixing,rod_fixing,1.0,124.0,1554475473487.0,1554475473363.0,59220a3e9098900001b55aaa,39.0,3.0 11.0,126.0
185127,3.0,668240.0,0.3,39.0,low,low-high,11.0,rod_fixing,rod_fixing,1.0,176.0,1554475473666.0,1554475473489.0,59220a3e9098900001b55aaa,39.0,3.0 11.0,180.0
185128,3.0,668240.0,0.3,39.0,low,low-high,11.0,rod_fixing,rod_fixing,1.0,171.0,1554475473839.0,1554475473669.0,59220a3e9098900001b55aaa,39.0,3.0 11.0,174.0
185129,3.0,668240.0,0.3,39.0,low,low-high,11.0,rod_fixing,rod_fixing,1.0,163.0,1554475474007.0,1554475473843.0,59220a3e9098900001b55aaa,39.0,3.0 11.0,167.0
185130,3.0,668240.0,0.3,39.0,low,low-high,11.0,rod_fixing,rod_fixing,1.0,169.0,1554475474178.0,1554475474010.0,59220a3e9098900001b55aaa,39.0,3.0 11.0,178.0
185438,7.0,668240.0,0.1,39.0,low,low-high,11.0,rod_fixing,rod_fixing,1.0,209.0,1554475525340.0,1554475525132.0,59220a3e9098900001b55aaa,39.0,7.0 11.0,213.0
185439,7.0,668240.0,0.1,39.0,low,low-high,11.0,rod_fixing,rod_fixing,1.0,163.0,1554475525510.0,1554475525345.0,59220a3e9098900001b55aaa,39.0,7.0 11.0,171.0
185440,7.0,668240.0,0.1,39.0,low,low-high,11.0,rod_fixing,rod_fixing,1.0,161.0,1554475525677.0,1554475525516.0,59220a3e9098900001b55aaa,39.0,7.0 11.0,166.0
185441,7.0,668240.0,0.1,39.0,low,low-high,11.0,rod_fixing,rod_fixing,1.0,153.0,1554475525835.0,1554475525682.0,59220a3e9098900001b55aaa,39.0,7.0 11.0,157.0
185442,7.0,668240.0,0.1,39.0,low,low-high,11.0,rod_fixing,rod_fixing,1.0,161.0,1554475526000.0,1554475525839.0,59220a3e9098900001b55aaa,39.0,7.0 11.0,168.0
185443,7.0,668240.0,0.1,39.0,low,low-high,11.0,rod_fixing,rod_fixing,1.0,166.0,1554475526173.0,1554475526007.0,59220a3e9098900001b55aaa,39.0,7.0 11.0,171.0
185444,7.0,668240.0,0.1,39.0,low,low-high,11.0,rod_fixing,rod_fixing,1.0,165.0,1554475526344.0,1554475526178.0,59220a3e9098900001b55aaa,39.0,7.0 11.0,191.0
185733,11.0,668240.0,1.8,39.0,low,low-high,11.0,rod_fixing,rod_fixing,1.0,175.0,1554475578011.0,1554475577836.0,59220a3e9098900001b55aaa,39.0,11.0 11.0,179.0
185734,11.0,668240.0,1.8,39.0,low,low-high,11.0,rod_fixing,rod_fixing,1.0,156.0,1554475578171.0,1554475578015.0,59220a3e9098900001b55aaa,39.0,11.0 11.0,159.0
185735,11.0,668240.0,1.8,39.0,low,low-high,11.0,rod_fixing,rod_fixing,1.0,196.0,1554475578369.0,1554475578174.0,59220a3e9098900001b55aaa,39.0,11.0 11.0,199.0
185736,11.0,668240.0,1.8,39.0,low,low-high,11.0,rod_fixing,rod_fixing,1.0,161.0,1554475578534.0,1554475578373.0,59220a3e9098900001b55aaa,39.0,11.0 11.0,165.0
185737,11.0,668240.0,1.8,39.0,low,low-high,11.0,rod_fixing,rod_fixing,1.0,189.0,1554475578727.0,1554475578538.0,59220a3e9098900001b55aaa,39.0,11.0 11.0,192.0
185738,11.0,668240.0,1.8,39.0,low,low-high,11.0,rod_fixing,rod_fixing,1.0,167.0,1554475578898.0,1554475578730.0,59220a3e9098900001b55aaa,39.0,11.0 11.0,172.0
185739,11.0,668240.0,1.8,39.0,low,low-high,11.0,rod_fixing,rod_fixing,1.0,174.0,1554475579076.0,1554475578902.0,59220a3e9098900001b55aaa,39.0,11.0 11.0,192.0
186121,4.0,668240.0,0.7,39.0,low,low-high,21.0,rod_fixing,rod_fixing,1.0,212.0,1554475752659.0,1554475752446.0,59220a3e9098900001b55aaa,39.0,4.0 21.0,217.0
186122,4.0,668240.0,0.7,39.0,low,low-high,21.0,rod_fixing,rod_fixing,1.0,126.0,1554475752790.0,1554475752663.0,59220a3e9098900001b55aaa,39.0,4.0 21.0,131.0
186123,4.0,668240.0,0.7,39.0,low,low-high,21.0,rod_fixing,rod_fixing,1.0,191.0,1554475752986.0,1554475752794.0,59220a3e9098900001b55aaa,39.0,4.0 21.0,200.0
186124,4.0,668240.0,0.7,39.0,low,low-high,21.0,rod_fixing,rod_fixing,1.0,144.0,1554475753140.0,1554475752994.0,59220a3e9098900001b55aaa,39.0,4.0 21.0,152.0
186125,4.0,668240.0,0.7,39.0,low,low-high,21.0,rod_fixing,rod_fixing,1.0,163.0,1554475753310.0,1554475753146.0,59220a3e9098900001b55aaa,39.0,4.0 21.0,170.0
186126,4.0,668240.0,0.7,39.0,low,low-high,21.0,rod_fixing,rod_fixing,1.0,166.0,1554475753482.0,1554475753316.0,59220a3e9098900001b55aaa,39.0,4.0 21.0,177.0
186127,4.0,668240.0,0.7,39.0,low,low-high,21.0,rod_fixing,rod_fixing,1.0,168.0,1554475753662.0,1554475753493.0,59220a3e9098900001b55aaa,39.0,4.0 21.0,192.0
186404,8.0,668240.0,1.2,39.0,low,low-high,21.0,rod_fixing,rod_fixing,1.0,159.0,1554475805098.0,1554475804938.0,59220a3e9098900001b55aaa,39.0,8.0 21.0,165.0
186405,8.0,668240.0,1.2,39.0,low,low-high,21.0,rod_fixing,rod_fixing,1.0,182.0,1554475805284.0,1554475805103.0,59220a3e9098900001b55aaa,39.0,8.0 21.0,191.0
186406,8.0,668240.0,1.2,39.0,low,low-high,21.0,rod_fixing,rod_fixing,1.0,148.0,1554475805443.0,1554475805294.0,59220a3e9098900001b55aaa,39.0,8.0 21.0,160.0
186407,8.0,668240.0,1.2,39.0,low,low-high,21.0,rod_fixing,rod_fixing,1.0,144.0,1554475805600.0,1554475805454.0,59220a3e9098900001b55aaa,39.0,8.0 21.0,150.0
186408,8.0,668240.0,1.2,39.0,low,low-high,21.0,rod_fixing,rod_fixing,1.0,166.0,1554475805773.0,1554475805604.0,59220a3e9098900001b55aaa,39.0,8.0 21.0,173.0
186409,8.0,668240.0,1.2,39.0,low,low-high,21.0,rod_fixing,rod_fixing,1.0,156.0,1554475805935.0,1554475805777.0,59220a3e9098900001b55aaa,39.0,8.0 21.0,163.0
186410,8.0,668240.0,1.2,39.0,low,low-high,21.0,rod_fixing,rod_fixing,1.0,182.0,1554475806122.0,1554475805940.0,59220a3e9098900001b55aaa,39.0,8.0 21.0,213.0
186602,11.0,668240.0,0.3,39.0,low,low-high,21.0,rod_fixing,rod_fixing,1.0,173.0,1554475844207.0,1554475844031.0,59220a3e9098900001b55aaa,39.0,11.0 21.0,182.0
186603,11.0,668240.0,0.3,39.0,low,low-high,21.0,rod_fixing,rod_fixing,1.0,163.0,1554475844377.0,1554475844213.0,59220a3e9098900001b55aaa,39.0,11.0 21.0,171.0
186604,11.0,668240.0,0.3,39.0,low,low-high,21.0,rod_fixing,rod_fixing,1.0,162.0,1554475844547.0,1554475844384.0,59220a3e9098900001b55aaa,39.0,11.0 21.0,167.0
186605,11.0,668240.0,0.3,39.0,low,low-high,21.0,rod_fixing,rod_fixing,1.0,162.0,1554475844714.0,1554475844551.0,59220a3e9098900001b55aaa,39.0,11.0 21.0,171.0
186606,11.0,668240.0,0.3,39.0,low,low-high,21.0,rod_fixing,rod_fixing,1.0,165.0,1554475844888.0,1554475844722.0,59220a3e9098900001b55aaa,39.0,11.0 21.0,171.0
186607,11.0,668240.0,0.3,39.0,low,low-high,21.0,rod_fixing,rod_fixing,1.0,167.0,1554475845061.0,1554475844893.0,59220a3e9098900001b55aaa,39.0,11.0 21.0,174.0
186608,11.0,668240.0,0.3,39.0,low,low-high,21.0,rod_fixing,rod_fixing,1.0,178.0,1554475845245.0,1554475845067.0,59220a3e9098900001b55aaa,39.0,11.0 21.0,208.0
186917,3.0,668240.0,0.3,39.0,high,low-high,12.0,rod_fixing,rod_fixing,1.0,175.0,1554476049004.0,1554476048828.0,59220a3e9098900001b55aaa,39.0,3.0 12.0,182.0
186918,3.0,668240.0,0.3,39.0,high,low-high,12.0,rod_fixing,rod_fixing,1.0,151.0,1554476049160.0,1554476049010.0,59220a3e9098900001b55aaa,39.0,3.0 12.0,163.0
186919,3.0,668240.0,0.3,39.0,high,low-high,12.0,rod_fixing,rod_fixing,1.0,139.0,1554476049314.0,1554476049173.0,59220a3e9098900001b55aaa,39.0,3.0 12.0,154.0
186920,3.0,668240.0,0.3,39.0,high,low-high,12.0,rod_fixing,rod_fixing,1.0,163.0,1554476049490.0,1554476049327.0,59220a3e9098900001b55aaa,39.0,3.0 12.0,177.0
186921,3.0,668240.0,0.3,39.0,high,low-high,12.0,rod_fixing,rod_fixing,1.0,137.0,1554476049642.0,1554476049504.0,59220a3e9098900001b55aaa,39.0,3.0 12.0,152.0
186922,3.0,668240.0,0.3,39.0,high,low-high,12.0,rod_fixing,rod_fixing,1.0,149.0,1554476049806.0,1554476049656.0,59220a3e9098900001b55aaa,39.0,3.0 12.0,157.0
186923,3.0,668240.0,0.3,39.0,high,low-high,12.0,rod_fixing,rod_fixing,1.0,160.0,1554476049974.0,1554476049813.0,59220a3e9098900001b55aaa,39.0,3.0 12.0,193.0
187237,7.0,668240.0,0.1,39.0,high,low-high,12.0,rod_fixing,rod_fixing,1.0,114.0,1554476101362.0,1554476101248.0,59220a3e9098900001b55aaa,39.0,7.0 12.0,129.0
187238,7.0,668240.0,0.1,39.0,high,low-high,12.0,rod_fixing,rod_fixing,1.0,220.0,1554476101597.0,1554476101377.0,59220a3e9098900001b55aaa,39.0,7.0 12.0,235.0
187239,7.0,668240.0,0.1,39.0,high,low-high,12.0,rod_fixing,rod_fixing,1.0,133.0,1554476101745.0,1554476101612.0,59220a3e9098900001b55aaa,39.0,7.0 12.0,140.0
187240,7.0,668240.0,0.1,39.0,high,low-high,12.0,rod_fixing,rod_fixing,1.0,160.0,1554476101913.0,1554476101752.0,59220a3e9098900001b55aaa,39.0,7.0 12.0,170.0
187241,7.0,668240.0,0.1,39.0,high,low-high,12.0,rod_fixing,rod_fixing,1.0,149.0,1554476102072.0,1554476101922.0,59220a3e9098900001b55aaa,39.0,7.0 12.0,160.0
187242,7.0,668240.0,0.1,39.0,high,low-high,12.0,rod_fixing,rod_fixing,1.0,168.0,1554476102251.0,1554476102082.0,59220a3e9098900001b55aaa,39.0,7.0 12.0,176.0
187243,7.0,668240.0,0.1,39.0,high,low-high,12.0,rod_fixing,rod_fixing,1.0,166.0,1554476102424.0,1554476102258.0,59220a3e9098900001b55aaa,39.0,7.0 12.0,220.0
187547,11.0,668240.0,1.8,39.0,high,low-high,12.0,rod_fixing,rod_fixing,1.0,165.0,1554476153883.0,1554476153718.0,59220a3e9098900001b55aaa,39.0,11.0 12.0,172.0
187548,11.0,668240.0,1.8,39.0,high,low-high,12.0,rod_fixing,rod_fixing,1.0,185.0,1554476154074.0,1554476153890.0,59220a3e9098900001b55aaa,39.0,11.0 12.0,200.0
187549,11.0,668240.0,1.8,39.0,high,low-high,12.0,rod_fixing,rod_fixing,1.0,161.0,1554476154253.0,1554476154090.0,59220a3e9098900001b55aaa,39.0,11.0 12.0,172.0
187550,11.0,668240.0,1.8,39.0,high,low-high,12.0,rod_fixing,rod_fixing,1.0,160.0,1554476154423.0,1554476154262.0,59220a3e9098900001b55aaa,39.0,11.0 12.0,170.0
187551,11.0,668240.0,1.8,39.0,high,low-high,12.0,rod_fixing,rod_fixing,1.0,186.0,1554476154619.0,1554476154432.0,59220a3e9098900001b55aaa,39.0,11.0 12.0,196.0
187552,11.0,668240.0,1.8,39.0,high,low-high,12.0,rod_fixing,rod_fixing,1.0,151.0,1554476154779.0,1554476154628.0,59220a3e9098900001b55aaa,39.0,11.0 12.0,159.0
187553,11.0,668240.0,1.8,39.0,high,low-high,12.0,rod_fixing,rod_fixing,1.0,181.0,1554476154969.0,1554476154787.0,59220a3e9098900001b55aaa,39.0,11.0 12.0,239.0
188260,8.0,668240.0,1.2,39.0,high,low-high,22.0,rod_fixing,rod_fixing,1.0,158.0,1554476365231.0,1554476365071.0,59220a3e9098900001b55aaa,39.0,8.0 22.0,181.0
188261,8.0,668240.0,1.2,39.0,high,low-high,22.0,rod_fixing,rod_fixing,1.0,133.0,1554476365387.0,1554476365252.0,59220a3e9098900001b55aaa,39.0,8.0 22.0,158.0
188262,8.0,668240.0,1.2,39.0,high,low-high,22.0,rod_fixing,rod_fixing,1.0,126.0,1554476365538.0,1554476365410.0,59220a3e9098900001b55aaa,39.0,8.0 22.0,148.0
188263,8.0,668240.0,1.2,39.0,high,low-high,22.0,rod_fixing,rod_fixing,1.0,175.0,1554476365734.0,1554476365558.0,59220a3e9098900001b55aaa,39.0,8.0 22.0,197.0
188264,8.0,668240.0,1.2,39.0,high,low-high,22.0,rod_fixing,rod_fixing,1.0,151.0,1554476365906.0,1554476365755.0,59220a3e9098900001b55aaa,39.0,8.0 22.0,161.0
188265,8.0,668240.0,1.2,39.0,high,low-high,22.0,rod_fixing,rod_fixing,1.0,164.0,1554476366080.0,1554476365916.0,59220a3e9098900001b55aaa,39.0,8.0 22.0,170.0
188266,8.0,668240.0,1.2,39.0,high,low-high,22.0,rod_fixing,rod_fixing,1.0,163.0,1554476366251.0,1554476366086.0,59220a3e9098900001b55aaa,39.0,8.0 22.0,202.0
188497,11.0,668240.0,0.3,39.0,high,low-high,22.0,rod_fixing,rod_fixing,1.0,172.0,1554476404678.0,1554476404506.0,59220a3e9098900001b55aaa,39.0,11.0 22.0,188.0
188498,11.0,668240.0,0.3,39.0,high,low-high,22.0,rod_fixing,rod_fixing,1.0,148.0,1554476404844.0,1554476404694.0,59220a3e9098900001b55aaa,39.0,11.0 22.0,170.0
188499,11.0,668240.0,0.3,39.0,high,low-high,22.0,rod_fixing,rod_fixing,1.0,150.0,1554476405015.0,1554476404864.0,59220a3e9098900001b55aaa,39.0,11.0 22.0,159.0
188500,11.0,668240.0,0.3,39.0,high,low-high,22.0,rod_fixing,rod_fixing,1.0,152.0,1554476405176.0,1554476405023.0,59220a3e9098900001b55aaa,39.0,11.0 22.0,162.0
188501,11.0,668240.0,0.3,39.0,high,low-high,22.0,rod_fixing,rod_fixing,1.0,151.0,1554476405336.0,1554476405185.0,59220a3e9098900001b55aaa,39.0,11.0 22.0,160.0
188502,11.0,668240.0,0.3,39.0,high,low-high,22.0,rod_fixing,rod_fixing,1.0,163.0,1554476405508.0,1554476405345.0,59220a3e9098900001b55aaa,39.0,11.0 22.0,185.0
188503,11.0,668240.0,0.3,39.0,high,low-high,22.0,rod_fixing,rod_fixing,1.0,147.0,1554476405678.0,1554476405530.0,59220a3e9098900001b55aaa,39.0,11.0 22.0,198.0
3947,3.0,668244.0,0.7,39.0,high,high-low,11.0,rod_fixing,rod_fixing,1.0,101.6450000461191,1554475690153.0,1554475690051.0,5ca606a5614b7b0015be495e,39.0,3.0 11.0,104.0
3948,3.0,668244.0,0.7,39.0,high,high-low,11.0,rod_fixing,rod_fixing,1.0,117.76499985717236,1554475690273.0,1554475690155.0,5ca606a5614b7b0015be495e,39.0,3.0 11.0,120.0
3949,3.0,668244.0,0.7,39.0,high,high-low,11.0,rod_fixing,rod_fixing,1.0,118.17500018514693,1554475690393.0,1554475690275.0,5ca606a5614b7b0015be495e,39.0,3.0 11.0,120.0
3950,3.0,668244.0,0.7,39.0,high,high-low,11.0,rod_fixing,rod_fixing,1.0,206.26999996602532,1554475690601.0,1554475690395.0,5ca606a5614b7b0015be495e,39.0,3.0 11.0,208.0
3951,3.0,668244.0,0.7,39.0,high,high-low,11.0,rod_fixing,rod_fixing,1.0,101.80000006221235,1554475690705.0,1554475690603.0,5ca606a5614b7b0015be495e,39.0,3.0 11.0,103.0
3952,3.0,668244.0,0.7,39.0,high,high-low,11.0,rod_fixing,rod_fixing,1.0,110.45499984174968,1554475690817.0,1554475690706.0,5ca606a5614b7b0015be495e,39.0,3.0 11.0,112.0
3953,3.0,668244.0,0.7,39.0,high,high-low,11.0,rod_fixing,rod_fixing,1.0,102.82999998889863,1554475690921.0,1554475690818.0,5ca606a5614b7b0015be495e,39.0,3.0 11.0,109.0
4294,7.0,668244.0,2.5,39.0,high,high-low,11.0,rod_fixing,rod_fixing,1.0,365.98000000230974,1554475742521.0,1554475742154.0,5ca606a5614b7b0015be495e,39.0,7.0 11.0,369.0
4295,7.0,668244.0,2.5,39.0,high,high-low,11.0,rod_fixing,rod_fixing,1.0,101.4649998396635,1554475742625.0,1554475742523.0,5ca606a5614b7b0015be495e,39.0,7.0 11.0,103.0
4296,7.0,668244.0,2.5,39.0,high,high-low,11.0,rod_fixing,rod_fixing,1.0,110.7149999588728,1554475742737.0,1554475742626.0,5ca606a5614b7b0015be495e,39.0,7.0 11.0,112.0
4297,7.0,668244.0,2.5,39.0,high,high-low,11.0,rod_fixing,rod_fixing,1.0,102.56500006653368,1554475742840.0,1554475742738.0,5ca606a5614b7b0015be495e,39.0,7.0 11.0,104.0
4298,7.0,668244.0,2.5,39.0,high,high-low,11.0,rod_fixing,rod_fixing,1.0,94.7300000116229,1554475742936.0,1554475742842.0,5ca606a5614b7b0015be495e,39.0,7.0 11.0,96.0
4299,7.0,668244.0,2.5,39.0,high,high-low,11.0,rod_fixing,rod_fixing,1.0,110.15999992378056,1554475743048.0,1554475742938.0,5ca606a5614b7b0015be495e,39.0,7.0 11.0,220.0
4603,11.0,668244.0,0.7,39.0,high,high-low,11.0,rod_fixing,rod_fixing,1.0,94.34500010684131,1554475794880.0,1554475794785.0,5ca606a5614b7b0015be495e,39.0,11.0 11.0,97.0
4604,11.0,668244.0,0.7,39.0,high,high-low,11.0,rod_fixing,rod_fixing,1.0,116.95499997586012,1554475795000.0,1554475794882.0,5ca606a5614b7b0015be495e,39.0,11.0 11.0,120.0
4605,11.0,668244.0,0.7,39.0,high,high-low,11.0,rod_fixing,rod_fixing,1.0,101.65999992750584,1554475795104.0,1554475795002.0,5ca606a5614b7b0015be495e,39.0,11.0 11.0,104.0
4606,11.0,668244.0,0.7,39.0,high,high-low,11.0,rod_fixing,rod_fixing,1.0,109.31999981403351,1554475795216.0,1554475795106.0,5ca606a5614b7b0015be495e,39.0,11.0 11.0,112.0
4607,11.0,668244.0,0.7,39.0,high,high-low,11.0,rod_fixing,rod_fixing,1.0,109.70999998971821,1554475795328.0,1554475795218.0,5ca606a5614b7b0015be495e,39.0,11.0 11.0,112.0
4608,11.0,668244.0,0.7,39.0,high,high-low,11.0,rod_fixing,rod_fixing,1.0,109.44999987259509,1554475795439.0,1554475795330.0,5ca606a5614b7b0015be495e,39.0,11.0 11.0,228.0
4955,4.0,668244.0,0.7,39.0,high,high-low,21.0,rod_fixing,rod_fixing,1.0,245.54999987594783,1554475993047.0,1554475992801.0,5ca606a5614b7b0015be495e,39.0,4.0 21.0,248.0
4956,4.0,668244.0,0.7,39.0,high,high-low,21.0,rod_fixing,rod_fixing,1.0,109.41000003367662,1554475993159.0,1554475993049.0,5ca606a5614b7b0015be495e,39.0,4.0 21.0,113.0
4957,4.0,668244.0,0.7,39.0,high,high-low,21.0,rod_fixing,rod_fixing,1.0,116.89499998465179,1554475993279.0,1554475993162.0,5ca606a5614b7b0015be495e,39.0,4.0 21.0,119.0
4958,4.0,668244.0,0.7,39.0,high,high-low,21.0,rod_fixing,rod_fixing,1.0,125.46499981544912,1554475993407.0,1554475993281.0,5ca606a5614b7b0015be495e,39.0,4.0 21.0,128.0
4959,4.0,668244.0,0.7,39.0,high,high-low,21.0,rod_fixing,rod_fixing,1.0,245.51500007510185,1554475993655.0,1554475993409.0,5ca606a5614b7b0015be495e,39.0,4.0 21.0,248.0
4960,4.0,668244.0,0.7,39.0,high,high-low,21.0,rod_fixing,rod_fixing,1.0,165.01499991863966,1554475993823.0,1554475993657.0,5ca606a5614b7b0015be495e,39.0,4.0 21.0,168.0
4961,4.0,668244.0,0.7,39.0,high,high-low,21.0,rod_fixing,rod_fixing,1.0,204.95500019751492,1554475994031.0,1554475993825.0,5ca606a5614b7b0015be495e,39.0,4.0 21.0,219.0
5238,8.0,668244.0,0.1,39.0,high,high-low,21.0,rod_fixing,rod_fixing,1.0,221.5799998957664,1554476044023.0,1554476043801.0,5ca606a5614b7b0015be495e,39.0,8.0 21.0,224.0
5239,8.0,668244.0,0.1,39.0,high,high-low,21.0,rod_fixing,rod_fixing,1.0,85.54999995976685,1554476044111.0,1554476044025.0,5ca606a5614b7b0015be495e,39.0,8.0 21.0,88.0
5240,8.0,668244.0,0.1,39.0,high,high-low,21.0,rod_fixing,rod_fixing,1.0,110.09499989449978,1554476044223.0,1554476044113.0,5ca606a5614b7b0015be495e,39.0,8.0 21.0,112.0
5241,8.0,668244.0,0.1,39.0,high,high-low,21.0,rod_fixing,rod_fixing,1.0,101.77999990992248,1554476044327.0,1554476044225.0,5ca606a5614b7b0015be495e,39.0,8.0 21.0,104.0
5242,8.0,668244.0,0.1,39.0,high,high-low,21.0,rod_fixing,rod_fixing,1.0,102.03999979421495,1554476044431.0,1554476044329.0,5ca606a5614b7b0015be495e,39.0,8.0 21.0,104.0
5243,8.0,668244.0,0.1,39.0,high,high-low,21.0,rod_fixing,rod_fixing,1.0,69.92499995976685,1554476044503.0,1554476044433.0,5ca606a5614b7b0015be495e,39.0,8.0 21.0,167.0
5475,11.0,668244.0,0.7,39.0,high,high-low,21.0,rod_fixing,rod_fixing,1.0,485.0950001273304,1554476083431.0,1554476082945.0,5ca606a5614b7b0015be495e,39.0,11.0 21.0,488.0
5476,11.0,668244.0,0.7,39.0,high,high-low,21.0,rod_fixing,rod_fixing,1.0,148.73500005342066,1554476083582.0,1554476083433.0,5ca606a5614b7b0015be495e,39.0,11.0 21.0,151.0
5477,11.0,668244.0,0.7,39.0,high,high-low,21.0,rod_fixing,rod_fixing,1.0,102.174999890849,1554476083686.0,1554476083584.0,5ca606a5614b7b0015be495e,39.0,11.0 21.0,104.0
5478,11.0,668244.0,0.7,39.0,high,high-low,21.0,rod_fixing,rod_fixing,1.0,141.88500004820523,1554476083830.0,1554476083688.0,5ca606a5614b7b0015be495e,39.0,11.0 21.0,144.0
5479,11.0,668244.0,0.7,39.0,high,high-low,21.0,rod_fixing,rod_fixing,1.0,110.1699999999255,1554476083943.0,1554476083832.0,5ca606a5614b7b0015be495e,39.0,11.0 21.0,113.0
5480,11.0,668244.0,0.7,39.0,high,high-low,21.0,rod_fixing,rod_fixing,1.0,140.70000010542572,1554476084086.0,1554476083945.0,5ca606a5614b7b0015be495e,39.0,11.0 21.0,144.0
5481,11.0,668244.0,0.7,39.0,high,high-low,21.0,rod_fixing,rod_fixing,1.0,149.2149999830872,1554476084238.0,1554476084089.0,5ca606a5614b7b0015be495e,39.0,11.0 21.0,160.0
5763,3.0,668244.0,0.7,39.0,low,high-low,12.0,rod_fixing,rod_fixing,1.0,164.28999998606741,1554476590517.0,1554476590352.0,5ca606a5614b7b0015be495e,39.0,3.0 12.0,168.0
5764,3.0,668244.0,0.7,39.0,low,high-low,12.0,rod_fixing,rod_fixing,1.0,141.03500009514391,1554476590661.0,1554476590520.0,5ca606a5614b7b0015be495e,39.0,3.0 12.0,144.0
5765,3.0,668244.0,0.7,39.0,low,high-low,12.0,rod_fixing,rod_fixing,1.0,156.71999985352159,1554476590821.0,1554476590664.0,5ca606a5614b7b0015be495e,39.0,3.0 12.0,160.0
5766,3.0,668244.0,0.7,39.0,low,high-low,12.0,rod_fixing,rod_fixing,1.0,117.70499986596407,1554476590942.0,1554476590824.0,5ca606a5614b7b0015be495e,39.0,3.0 12.0,120.0
5767,3.0,668244.0,0.7,39.0,low,high-low,12.0,rod_fixing,rod_fixing,1.0,140.2900000102818,1554476591085.0,1554476590944.0,5ca606a5614b7b0015be495e,39.0,3.0 12.0,143.0
5768,3.0,668244.0,0.7,39.0,low,high-low,12.0,rod_fixing,rod_fixing,1.0,141.30500005558133,1554476591229.0,1554476591087.0,5ca606a5614b7b0015be495e,39.0,3.0 12.0,145.0
5769,3.0,668244.0,0.7,39.0,low,high-low,12.0,rod_fixing,rod_fixing,1.0,252.6699998416006,1554476591485.0,1554476591232.0,5ca606a5614b7b0015be495e,39.0,3.0 12.0,265.0
6042,7.0,668244.0,2.5,39.0,low,high-low,12.0,rod_fixing,rod_fixing,1.0,172.78000013902786,1554476642868.0,1554476642695.0,5ca606a5614b7b0015be495e,39.0,7.0 12.0,177.0
6043,7.0,668244.0,2.5,39.0,low,high-low,12.0,rod_fixing,rod_fixing,1.0,284.53999990597373,1554476643156.0,1554476642872.0,5ca606a5614b7b0015be495e,39.0,7.0 12.0,288.0
6044,7.0,668244.0,2.5,39.0,low,high-low,12.0,rod_fixing,rod_fixing,1.0,155.70000000298026,1554476643316.0,1554476643160.0,5ca606a5614b7b0015be495e,39.0,7.0 12.0,159.0
6045,7.0,668244.0,2.5,39.0,low,high-low,12.0,rod_fixing,rod_fixing,1.0,269.73499986343086,1554476643589.0,1554476643319.0,5ca606a5614b7b0015be495e,39.0,7.0 12.0,272.0
6046,7.0,668244.0,2.5,39.0,low,high-low,12.0,rod_fixing,rod_fixing,1.0,165.4699998907745,1554476643757.0,1554476643591.0,5ca606a5614b7b0015be495e,39.0,7.0 12.0,169.0
6047,7.0,668244.0,2.5,39.0,low,high-low,12.0,rod_fixing,rod_fixing,1.0,196.80500007234517,1554476643957.0,1554476643760.0,5ca606a5614b7b0015be495e,39.0,7.0 12.0,199.0
6048,7.0,668244.0,2.5,39.0,low,high-low,12.0,rod_fixing,rod_fixing,1.0,285.56999983266,1554476644245.0,1554476643959.0,5ca606a5614b7b0015be495e,39.0,7.0 12.0,297.0
6344,11.0,668244.0,0.7,39.0,low,high-low,12.0,rod_fixing,rod_fixing,1.0,156.71999985352159,1554476695373.0,1554476695216.0,5ca606a5614b7b0015be495e,39.0,11.0 12.0,160.0
6345,11.0,668244.0,0.7,39.0,low,high-low,12.0,rod_fixing,rod_fixing,1.0,124.8749999795109,1554476695501.0,1554476695376.0,5ca606a5614b7b0015be495e,39.0,11.0 12.0,128.0
6346,11.0,668244.0,0.7,39.0,low,high-low,12.0,rod_fixing,rod_fixing,1.0,148.78499996848404,1554476695653.0,1554476695504.0,5ca606a5614b7b0015be495e,39.0,11.0 12.0,153.0
6347,11.0,668244.0,0.7,39.0,low,high-low,12.0,rod_fixing,rod_fixing,1.0,124.04999998398122,1554476695781.0,1554476695657.0,5ca606a5614b7b0015be495e,39.0,11.0 12.0,127.0
6348,11.0,668244.0,0.7,39.0,low,high-low,12.0,rod_fixing,rod_fixing,1.0,140.59500000439584,1554476695925.0,1554476695784.0,5ca606a5614b7b0015be495e,39.0,11.0 12.0,144.0
6349,11.0,668244.0,0.7,39.0,low,high-low,12.0,rod_fixing,rod_fixing,1.0,124.55000006593764,1554476696053.0,1554476695928.0,5ca606a5614b7b0015be495e,39.0,11.0 12.0,128.0
6350,11.0,668244.0,0.7,39.0,low,high-low,12.0,rod_fixing,rod_fixing,1.0,212.1549998410046,1554476696269.0,1554476696056.0,5ca606a5614b7b0015be495e,39.0,11.0 12.0,225.0
6711,4.0,668244.0,0.7,39.0,low,high-low,22.0,rod_fixing,rod_fixing,1.0,156.48499992676082,1554476969789.0,1554476969632.0,5ca606a5614b7b0015be495e,39.0,4.0 22.0,159.0
6712,4.0,668244.0,0.7,39.0,low,high-low,22.0,rod_fixing,rod_fixing,1.0,116.96500005200504,1554476969909.0,1554476969791.0,5ca606a5614b7b0015be495e,39.0,4.0 22.0,120.0
6713,4.0,668244.0,0.7,39.0,low,high-low,22.0,rod_fixing,rod_fixing,1.0,189.78999997489154,1554476970101.0,1554476969911.0,5ca606a5614b7b0015be495e,39.0,4.0 22.0,193.0
6714,4.0,668244.0,0.7,39.0,low,high-low,22.0,rod_fixing,rod_fixing,1.0,76.12000009976327,1554476970181.0,1554476970104.0,5ca606a5614b7b0015be495e,39.0,4.0 22.0,79.0
6715,4.0,668244.0,0.7,39.0,low,high-low,22.0,rod_fixing,rod_fixing,1.0,117.2850001603365,1554476970301.0,1554476970183.0,5ca606a5614b7b0015be495e,39.0,4.0 22.0,120.0
6716,4.0,668244.0,0.7,39.0,low,high-low,22.0,rod_fixing,rod_fixing,1.0,85.13500005938113,1554476970388.0,1554476970303.0,5ca606a5614b7b0015be495e,39.0,4.0 22.0,89.0
6717,4.0,668244.0,0.7,39.0,low,high-low,22.0,rod_fixing,rod_fixing,1.0,372.74000002071267,1554476970765.0,1554476970392.0,5ca606a5614b7b0015be495e,39.0,4.0 22.0,387.0
7061,8.0,668244.0,0.1,39.0,low,high-low,22.0,rod_fixing,rod_fixing,1.0,133.0150000285357,1554477021388.0,1554477021255.0,5ca606a5614b7b0015be495e,39.0,8.0 22.0,137.0
7062,8.0,668244.0,0.1,39.0,low,high-low,22.0,rod_fixing,rod_fixing,1.0,219.97999981977048,1554477021612.0,1554477021392.0,5ca606a5614b7b0015be495e,39.0,8.0 22.0,873.0
7283,11.0,668244.0,0.7,39.0,low,high-low,22.0,rod_fixing,rod_fixing,1.0,229.30500004440543,1554477060781.0,1554477060551.0,5ca606a5614b7b0015be495e,39.0,11.0 22.0,233.0
7284,11.0,668244.0,0.7,39.0,low,high-low,22.0,rod_fixing,rod_fixing,1.0,115.48999999649824,1554477060900.0,1554477060784.0,5ca606a5614b7b0015be495e,39.0,11.0 22.0,121.0
7285,11.0,668244.0,0.7,39.0,low,high-low,22.0,rod_fixing,rod_fixing,1.0,106.55000014230608,1554477061012.0,1554477060905.0,5ca606a5614b7b0015be495e,39.0,11.0 22.0,111.0
7286,11.0,668244.0,0.7,39.0,low,high-low,22.0,rod_fixing,rod_fixing,1.0,116.22500000521539,1554477061132.0,1554477061016.0,5ca606a5614b7b0015be495e,39.0,11.0 22.0,119.0
7287,11.0,668244.0,0.7,39.0,low,high-low,22.0,rod_fixing,rod_fixing,1.0,109.11999992094934,1554477061244.0,1554477061135.0,5ca606a5614b7b0015be495e,39.0,11.0 22.0,112.0
7288,11.0,668244.0,0.7,39.0,low,high-low,22.0,rod_fixing,rod_fixing,1.0,116.96500005200504,1554477061364.0,1554477061247.0,5ca606a5614b7b0015be495e,39.0,11.0 22.0,121.0
7289,11.0,668244.0,0.7,39.0,low,high-low,22.0,rod_fixing,rod_fixing,1.0,163.79999998025596,1554477061532.0,1554477061368.0,5ca606a5614b7b0015be495e,39.0,11.0 22.0,179.0
192543,3.0,668245.0,0.1,39.0,low,low-high,11.0,rod_fixing,rod_fixing,1.0,235.14499999998955,1554475551077.0,1554475550840.0,5978142b21bc3d0001a1d2b6,39.0,3.0 11.0,242.0
192544,3.0,668245.0,0.1,39.0,low,low-high,11.0,rod_fixing,rod_fixing,1.0,170.25000000000728,1554475551253.0,1554475551082.0,5978142b21bc3d0001a1d2b6,39.0,3.0 11.0,175.0
192545,3.0,668245.0,0.1,39.0,low,low-high,11.0,rod_fixing,rod_fixing,1.0,191.68500000000492,1554475551450.0,1554475551257.0,5978142b21bc3d0001a1d2b6,39.0,3.0 11.0,197.0
192546,3.0,668245.0,0.1,39.0,low,low-high,11.0,rod_fixing,rod_fixing,1.0,192.04500000000556,1554475551647.0,1554475551454.0,5978142b21bc3d0001a1d2b6,39.0,3.0 11.0,197.0
192547,3.0,668245.0,0.1,39.0,low,low-high,11.0,rod_fixing,rod_fixing,1.0,217.36499999996886,1554475551869.0,1554475551651.0,5978142b21bc3d0001a1d2b6,39.0,3.0 11.0,222.0
192548,3.0,668245.0,0.1,39.0,low,low-high,11.0,rod_fixing,rod_fixing,1.0,209.9850000000733,1554475552084.0,1554475551873.0,5978142b21bc3d0001a1d2b6,39.0,3.0 11.0,215.0
192549,3.0,668245.0,0.1,39.0,low,low-high,11.0,rod_fixing,rod_fixing,1.0,205.0049999999173,1554475552294.0,1554475552088.0,5978142b21bc3d0001a1d2b6,39.0,3.0 11.0,220.0
192840,7.0,668245.0,0.7,39.0,low,low-high,11.0,rod_fixing,rod_fixing,1.0,202.76999999998955,1554475603217.0,1554475603014.0,5978142b21bc3d0001a1d2b6,39.0,7.0 11.0,208.0
192841,7.0,668245.0,0.7,39.0,low,low-high,11.0,rod_fixing,rod_fixing,1.0,179.0399999999936,1554475603402.0,1554475603222.0,5978142b21bc3d0001a1d2b6,39.0,7.0 11.0,184.0
192842,7.0,668245.0,0.7,39.0,low,low-high,11.0,rod_fixing,rod_fixing,1.0,183.05500000008038,1554475603590.0,1554475603406.0,5978142b21bc3d0001a1d2b6,39.0,7.0 11.0,188.0
192843,7.0,668245.0,0.7,39.0,low,low-high,11.0,rod_fixing,rod_fixing,1.0,195.8450000000739,1554475603791.0,1554475603594.0,5978142b21bc3d0001a1d2b6,39.0,7.0 11.0,200.0
192844,7.0,668245.0,0.7,39.0,low,low-high,11.0,rod_fixing,rod_fixing,1.0,188.94000000000236,1554475603984.0,1554475603794.0,5978142b21bc3d0001a1d2b6,39.0,7.0 11.0,195.0
192845,7.0,668245.0,0.7,39.0,low,low-high,11.0,rod_fixing,rod_fixing,1.0,186.32500000001164,1554475604176.0,1554475603989.0,5978142b21bc3d0001a1d2b6,39.0,7.0 11.0,193.0
192846,7.0,668245.0,0.7,39.0,low,low-high,11.0,rod_fixing,rod_fixing,1.0,179.30500000000757,1554475604362.0,1554475604182.0,5978142b21bc3d0001a1d2b6,39.0,7.0 11.0,194.0
193150,11.0,668245.0,0.1,39.0,low,low-high,11.0,rod_fixing,rod_fixing,1.0,174.31499999997322,1554475655607.0,1554475655432.0,5978142b21bc3d0001a1d2b6,39.0,11.0 11.0,180.0
193151,11.0,668245.0,0.1,39.0,low,low-high,11.0,rod_fixing,rod_fixing,1.0,175.37000000002445,1554475655788.0,1554475655612.0,5978142b21bc3d0001a1d2b6,39.0,11.0 11.0,181.0
193152,11.0,668245.0,0.1,39.0,low,low-high,11.0,rod_fixing,rod_fixing,1.0,180.990000000078,1554475655974.0,1554475655793.0,5978142b21bc3d0001a1d2b6,39.0,11.0 11.0,187.0
193153,11.0,668245.0,0.1,39.0,low,low-high,11.0,rod_fixing,rod_fixing,1.0,174.09499999994296,1554475656155.0,1554475655980.0,5978142b21bc3d0001a1d2b6,39.0,11.0 11.0,180.0
193154,11.0,668245.0,0.1,39.0,low,low-high,11.0,rod_fixing,rod_fixing,1.0,182.41500000000812,1554475656343.0,1554475656160.0,5978142b21bc3d0001a1d2b6,39.0,11.0 11.0,188.0
193155,11.0,668245.0,0.1,39.0,low,low-high,11.0,rod_fixing,rod_fixing,1.0,195.7399999999907,1554475656544.0,1554475656348.0,5978142b21bc3d0001a1d2b6,39.0,11.0 11.0,201.0
193156,11.0,668245.0,0.1,39.0,low,low-high,11.0,rod_fixing,rod_fixing,1.0,178.7600000000093,1554475656728.0,1554475656549.0,5978142b21bc3d0001a1d2b6,39.0,11.0 11.0,196.0
193541,4.0,668245.0,0.3,39.0,low,low-high,21.0,rod_fixing,rod_fixing,1.0,205.80999999993944,1554475733694.0,1554475733488.0,5978142b21bc3d0001a1d2b6,39.0,4.0 21.0,209.0
193542,4.0,668245.0,0.3,39.0,low,low-high,21.0,rod_fixing,rod_fixing,1.0,173.28499999994528,1554475733871.0,1554475733697.0,5978142b21bc3d0001a1d2b6,39.0,4.0 21.0,177.0
193543,4.0,668245.0,0.3,39.0,low,low-high,21.0,rod_fixing,rod_fixing,1.0,178.42000000007098,1554475734053.0,1554475733874.0,5978142b21bc3d0001a1d2b6,39.0,4.0 21.0,183.0
193544,4.0,668245.0,0.3,39.0,low,low-high,21.0,rod_fixing,rod_fixing,1.0,187.14499999998955,1554475734245.0,1554475734057.0,5978142b21bc3d0001a1d2b6,39.0,4.0 21.0,192.0
193545,4.0,668245.0,0.3,39.0,low,low-high,21.0,rod_fixing,rod_fixing,1.0,181.9450000000361,1554475734432.0,1554475734249.0,5978142b21bc3d0001a1d2b6,39.0,4.0 21.0,575.0
193842,8.0,668245.0,0.3,39.0,low,low-high,21.0,rod_fixing,rod_fixing,1.0,187.45500000001633,1554475786449.0,1554475786261.0,5978142b21bc3d0001a1d2b6,39.0,8.0 21.0,193.0
193843,8.0,668245.0,0.3,39.0,low,low-high,21.0,rod_fixing,rod_fixing,1.0,158.75500000006286,1554475786614.0,1554475786454.0,5978142b21bc3d0001a1d2b6,39.0,8.0 21.0,165.0
193844,8.0,668245.0,0.3,39.0,low,low-high,21.0,rod_fixing,rod_fixing,1.0,160.0449999999837,1554475786780.0,1554475786619.0,5978142b21bc3d0001a1d2b6,39.0,8.0 21.0,166.0
193845,8.0,668245.0,0.3,39.0,low,low-high,21.0,rod_fixing,rod_fixing,1.0,160.9700000000303,1554475786947.0,1554475786785.0,5978142b21bc3d0001a1d2b6,39.0,8.0 21.0,167.0
193846,8.0,668245.0,0.3,39.0,low,low-high,21.0,rod_fixing,rod_fixing,1.0,174.56500000000233,1554475787128.0,1554475786952.0,5978142b21bc3d0001a1d2b6,39.0,8.0 21.0,181.0
193847,8.0,668245.0,0.3,39.0,low,low-high,21.0,rod_fixing,rod_fixing,1.0,181.5950000000303,1554475787316.0,1554475787133.0,5978142b21bc3d0001a1d2b6,39.0,8.0 21.0,188.0
193848,8.0,668245.0,0.3,39.0,low,low-high,21.0,rod_fixing,rod_fixing,1.0,170.8999999999651,1554475787493.0,1554475787321.0,5978142b21bc3d0001a1d2b6,39.0,8.0 21.0,188.0
194055,11.0,668245.0,0.1,39.0,low,low-high,21.0,rod_fixing,rod_fixing,1.0,195.0799999999581,1554475826502.0,1554475826306.0,5978142b21bc3d0001a1d2b6,39.0,11.0 21.0,201.0
194056,11.0,668245.0,0.1,39.0,low,low-high,21.0,rod_fixing,rod_fixing,1.0,197.8649999999907,1554475826706.0,1554475826507.0,5978142b21bc3d0001a1d2b6,39.0,11.0 21.0,204.0
194057,11.0,668245.0,0.1,39.0,low,low-high,21.0,rod_fixing,rod_fixing,1.0,182.73499999998603,1554475826894.0,1554475826711.0,5978142b21bc3d0001a1d2b6,39.0,11.0 21.0,188.0
194058,11.0,668245.0,0.1,39.0,low,low-high,21.0,rod_fixing,rod_fixing,1.0,175.60999999998603,1554475827075.0,1554475826899.0,5978142b21bc3d0001a1d2b6,39.0,11.0 21.0,182.0
194059,11.0,668245.0,0.1,39.0,low,low-high,21.0,rod_fixing,rod_fixing,1.0,190.1050000000396,1554475827272.0,1554475827081.0,5978142b21bc3d0001a1d2b6,39.0,11.0 21.0,196.0
194060,11.0,668245.0,0.1,39.0,low,low-high,21.0,rod_fixing,rod_fixing,1.0,201.09999999997672,1554475827478.0,1554475827277.0,5978142b21bc3d0001a1d2b6,39.0,11.0 21.0,207.0
194061,11.0,668245.0,0.1,39.0,low,low-high,21.0,rod_fixing,rod_fixing,1.0,176.18499999993946,1554475827661.0,1554475827484.0,5978142b21bc3d0001a1d2b6,39.0,11.0 21.0,195.0
194370,3.0,668245.0,0.1,39.0,high,low-high,12.0,rod_fixing,rod_fixing,1.0,145.70000000006985,1554475920207.0,1554475920061.0,5978142b21bc3d0001a1d2b6,39.0,3.0 12.0,153.0
194371,3.0,668245.0,0.1,39.0,high,low-high,12.0,rod_fixing,rod_fixing,1.0,133.7149999999674,1554475920348.0,1554475920214.0,5978142b21bc3d0001a1d2b6,39.0,3.0 12.0,141.0
194372,3.0,668245.0,0.1,39.0,high,low-high,12.0,rod_fixing,rod_fixing,1.0,130.19999999995343,1554475920486.0,1554475920355.0,5978142b21bc3d0001a1d2b6,39.0,3.0 12.0,138.0
194373,3.0,668245.0,0.1,39.0,high,low-high,12.0,rod_fixing,rod_fixing,1.0,151.6149999999907,1554475920645.0,1554475920493.0,5978142b21bc3d0001a1d2b6,39.0,3.0 12.0,159.0
194374,3.0,668245.0,0.1,39.0,high,low-high,12.0,rod_fixing,rod_fixing,1.0,150.03000000002794,1554475920803.0,1554475920652.0,5978142b21bc3d0001a1d2b6,39.0,3.0 12.0,157.0
194375,3.0,668245.0,0.1,39.0,high,low-high,12.0,rod_fixing,rod_fixing,1.0,137.12999999994645,1554475920947.0,1554475920809.0,5978142b21bc3d0001a1d2b6,39.0,3.0 12.0,145.0
194376,3.0,668245.0,0.1,39.0,high,low-high,12.0,rod_fixing,rod_fixing,1.0,365.07499999995343,1554475921320.0,1554475920954.0,5978142b21bc3d0001a1d2b6,39.0,3.0 12.0,390.0
194682,7.0,668245.0,0.7,39.0,high,low-high,12.0,rod_fixing,rod_fixing,1.0,156.8250000000116,1554475972212.0,1554475972055.0,5978142b21bc3d0001a1d2b6,39.0,7.0 12.0,163.0
194683,7.0,668245.0,0.7,39.0,high,low-high,12.0,rod_fixing,rod_fixing,1.0,153.09000000002558,1554475972372.0,1554475972218.0,5978142b21bc3d0001a1d2b6,39.0,7.0 12.0,159.0
194684,7.0,668245.0,0.7,39.0,high,low-high,12.0,rod_fixing,rod_fixing,1.0,164.5999999998603,1554475972542.0,1554475972377.0,5978142b21bc3d0001a1d2b6,39.0,7.0 12.0,172.0
194685,7.0,668245.0,0.7,39.0,high,low-high,12.0,rod_fixing,rod_fixing,1.0,179.50500000006286,1554475972730.0,1554475972549.0,5978142b21bc3d0001a1d2b6,39.0,7.0 12.0,187.0
194686,7.0,668245.0,0.7,39.0,high,low-high,12.0,rod_fixing,rod_fixing,1.0,174.06499999994412,1554475972910.0,1554475972736.0,5978142b21bc3d0001a1d2b6,39.0,7.0 12.0,182.0
194687,7.0,668245.0,0.7,39.0,high,low-high,12.0,rod_fixing,rod_fixing,1.0,163.12500000005818,1554475973082.0,1554475972918.0,5978142b21bc3d0001a1d2b6,39.0,7.0 12.0,171.0
194688,7.0,668245.0,0.7,39.0,high,low-high,12.0,rod_fixing,rod_fixing,1.0,352.09499999997206,1554475973442.0,1554475973089.0,5978142b21bc3d0001a1d2b6,39.0,7.0 12.0,375.0
194977,11.0,668245.0,0.1,39.0,high,low-high,12.0,rod_fixing,rod_fixing,1.0,228.9000000001397,1554476024437.0,1554476024207.0,5978142b21bc3d0001a1d2b6,39.0,11.0 12.0,238.0
194978,11.0,668245.0,0.1,39.0,high,low-high,12.0,rod_fixing,rod_fixing,1.0,171.0450000000419,1554476024616.0,1554476024445.0,5978142b21bc3d0001a1d2b6,39.0,11.0 12.0,179.0
194979,11.0,668245.0,0.1,39.0,high,low-high,12.0,rod_fixing,rod_fixing,1.0,224.79999999993012,1554476024850.0,1554476024624.0,5978142b21bc3d0001a1d2b6,39.0,11.0 12.0,232.0
194980,11.0,668245.0,0.1,39.0,high,low-high,12.0,rod_fixing,rod_fixing,1.0,193.3349999998464,1554476025050.0,1554476024856.0,5978142b21bc3d0001a1d2b6,39.0,11.0 12.0,201.0
194981,11.0,668245.0,0.1,39.0,high,low-high,12.0,rod_fixing,rod_fixing,1.0,188.92499999993012,1554476025246.0,1554476025057.0,5978142b21bc3d0001a1d2b6,39.0,11.0 12.0,197.0
194982,11.0,668245.0,0.1,39.0,high,low-high,12.0,rod_fixing,rod_fixing,1.0,227.91499999992084,1554476025482.0,1554476025254.0,5978142b21bc3d0001a1d2b6,39.0,11.0 12.0,444.0
195372,4.0,668245.0,0.3,39.0,high,low-high,22.0,rod_fixing,rod_fixing,1.0,170.34000000020026,1554476125220.0,1554476125049.0,5978142b21bc3d0001a1d2b6,39.0,4.0 22.0,180.0
195373,4.0,668245.0,0.3,39.0,high,low-high,22.0,rod_fixing,rod_fixing,1.0,147.8199999998324,1554476125377.0,1554476125229.0,5978142b21bc3d0001a1d2b6,39.0,4.0 22.0,156.0
195374,4.0,668245.0,0.3,39.0,high,low-high,22.0,rod_fixing,rod_fixing,1.0,163.410000000149,1554476125549.0,1554476125385.0,5978142b21bc3d0001a1d2b6,39.0,4.0 22.0,171.0
195375,4.0,668245.0,0.3,39.0,high,low-high,22.0,rod_fixing,rod_fixing,1.0,172.77500000002328,1554476125730.0,1554476125556.0,5978142b21bc3d0001a1d2b6,39.0,4.0 22.0,181.0
195376,4.0,668245.0,0.3,39.0,high,low-high,22.0,rod_fixing,rod_fixing,1.0,178.50500000012107,1554476125916.0,1554476125737.0,5978142b21bc3d0001a1d2b6,39.0,4.0 22.0,187.0
195377,4.0,668245.0,0.3,39.0,high,low-high,22.0,rod_fixing,rod_fixing,1.0,173.61999999999534,1554476126099.0,1554476125924.0,5978142b21bc3d0001a1d2b6,39.0,4.0 22.0,184.0
195378,4.0,668245.0,0.3,39.0,high,low-high,22.0,rod_fixing,rod_fixing,1.0,171.1150000001071,1554476126280.0,1554476126108.0,5978142b21bc3d0001a1d2b6,39.0,4.0 22.0,198.0
195672,8.0,668245.0,0.3,39.0,high,low-high,22.0,rod_fixing,rod_fixing,1.0,179.59999999997672,1554476176859.0,1554476176678.0,5978142b21bc3d0001a1d2b6,39.0,8.0 22.0,190.0
195673,8.0,668245.0,0.3,39.0,high,low-high,22.0,rod_fixing,rod_fixing,1.0,156.39500000001863,1554476177025.0,1554476176868.0,5978142b21bc3d0001a1d2b6,39.0,8.0 22.0,166.0
195674,8.0,668245.0,0.3,39.0,high,low-high,22.0,rod_fixing,rod_fixing,1.0,151.43999999982768,1554476177186.0,1554476177034.0,5978142b21bc3d0001a1d2b6,39.0,8.0 22.0,161.0
195675,8.0,668245.0,0.3,39.0,high,low-high,22.0,rod_fixing,rod_fixing,1.0,160.67500000004657,1554476177356.0,1554476177195.0,5978142b21bc3d0001a1d2b6,39.0,8.0 22.0,170.0
195676,8.0,668245.0,0.3,39.0,high,low-high,22.0,rod_fixing,rod_fixing,1.0,167.8199999998324,1554476177533.0,1554476177365.0,5978142b21bc3d0001a1d2b6,39.0,8.0 22.0,178.0
195677,8.0,668245.0,0.3,39.0,high,low-high,22.0,rod_fixing,rod_fixing,1.0,177.8299999998417,1554476177721.0,1554476177543.0,5978142b21bc3d0001a1d2b6,39.0,8.0 22.0,185.0
195678,8.0,668245.0,0.3,39.0,high,low-high,22.0,rod_fixing,rod_fixing,1.0,182.6699999999255,1554476177911.0,1554476177728.0,5978142b21bc3d0001a1d2b6,39.0,8.0 22.0,209.0
195902,11.0,668245.0,0.1,39.0,high,low-high,22.0,rod_fixing,rod_fixing,1.0,179.33500000007916,1554476216726.0,1554476216546.0,5978142b21bc3d0001a1d2b6,39.0,11.0 22.0,189.0
195903,11.0,668245.0,0.1,39.0,high,low-high,22.0,rod_fixing,rod_fixing,1.0,165.60499999998137,1554476216902.0,1554476216735.0,5978142b21bc3d0001a1d2b6,39.0,11.0 22.0,176.0
195904,11.0,668245.0,0.1,39.0,high,low-high,22.0,rod_fixing,rod_fixing,1.0,175.6350000000093,1554476217088.0,1554476216911.0,5978142b21bc3d0001a1d2b6,39.0,11.0 22.0,185.0
195905,11.0,668245.0,0.1,39.0,high,low-high,22.0,rod_fixing,rod_fixing,1.0,204.53499999979977,1554476217301.0,1554476217096.0,5978142b21bc3d0001a1d2b6,39.0,11.0 22.0,212.0
195906,11.0,668245.0,0.1,39.0,high,low-high,22.0,rod_fixing,rod_fixing,1.0,169.214999999851,1554476217478.0,1554476217308.0,5978142b21bc3d0001a1d2b6,39.0,11.0 22.0,586.0
184,3.0,668246.0,2.5,39.0,high,high-low,11.0,rod_fixing,rod_fixing,1.0,128.1250000174623,1554475572903.0,1554475572774.0,5a7a0d8df49c9a0001f31b73,39.0,3.0 11.0,132.0
185,3.0,668246.0,2.5,39.0,high,high-low,11.0,rod_fixing,rod_fixing,1.0,132.55999999819323,1554475573039.0,1554475572906.0,5a7a0d8df49c9a0001f31b73,39.0,3.0 11.0,135.0
186,3.0,668246.0,2.5,39.0,high,high-low,11.0,rod_fixing,rod_fixing,1.0,141.14500000141558,1554475573183.0,1554475573041.0,5a7a0d8df49c9a0001f31b73,39.0,3.0 11.0,144.0
187,3.0,668246.0,2.5,39.0,high,high-low,11.0,rod_fixing,rod_fixing,1.0,141.01500000106168,1554475573327.0,1554475573185.0,5a7a0d8df49c9a0001f31b73,39.0,3.0 11.0,145.0
188,3.0,668246.0,2.5,39.0,high,high-low,11.0,rod_fixing,rod_fixing,1.0,140.28000002144836,1554475573471.0,1554475573330.0,5a7a0d8df49c9a0001f31b73,39.0,3.0 11.0,143.0
189,3.0,668246.0,2.5,39.0,high,high-low,11.0,rod_fixing,rod_fixing,1.0,133.15000000875443,1554475573607.0,1554475573473.0,5a7a0d8df49c9a0001f31b73,39.0,3.0 11.0,136.0
190,3.0,668246.0,2.5,39.0,high,high-low,11.0,rod_fixing,rod_fixing,1.0,140.5899999954272,1554475573751.0,1554475573609.0,5a7a0d8df49c9a0001f31b73,39.0,3.0 11.0,155.0
525,7.0,668246.0,1.2,39.0,high,high-low,11.0,rod_fixing,rod_fixing,1.0,145.98000000114553,1554475624838.0,1554475624690.0,5a7a0d8df49c9a0001f31b73,39.0,7.0 11.0,150.0
526,7.0,668246.0,1.2,39.0,high,high-low,11.0,rod_fixing,rod_fixing,1.0,141.28499999060298,1554475624982.0,1554475624840.0,5a7a0d8df49c9a0001f31b73,39.0,7.0 11.0,144.0
527,7.0,668246.0,1.2,39.0,high,high-low,11.0,rod_fixing,rod_fixing,1.0,149.23999999882653,1554475625134.0,1554475624984.0,5a7a0d8df49c9a0001f31b73,39.0,7.0 11.0,152.0
528,7.0,668246.0,1.2,39.0,high,high-low,11.0,rod_fixing,rod_fixing,1.0,132.76500001666136,1554475625269.0,1554475625136.0,5a7a0d8df49c9a0001f31b73,39.0,7.0 11.0,136.0
529,7.0,668246.0,1.2,39.0,high,high-low,11.0,rod_fixing,rod_fixing,1.0,132.94500001939014,1554475625406.0,1554475625272.0,5a7a0d8df49c9a0001f31b73,39.0,7.0 11.0,136.0
530,7.0,668246.0,1.2,39.0,high,high-low,11.0,rod_fixing,rod_fixing,1.0,148.8200000021607,1554475625558.0,1554475625408.0,5a7a0d8df49c9a0001f31b73,39.0,7.0 11.0,312.0
848,11.0,668246.0,0.3,39.0,high,high-low,11.0,rod_fixing,rod_fixing,1.0,139.3099999986589,1554475677087.0,1554475676947.0,5a7a0d8df49c9a0001f31b73,39.0,11.0 11.0,143.0
849,11.0,668246.0,0.3,39.0,high,high-low,11.0,rod_fixing,rod_fixing,1.0,141.52000000467527,1554475677232.0,1554475677090.0,5a7a0d8df49c9a0001f31b73,39.0,11.0 11.0,144.0
850,11.0,668246.0,0.3,39.0,high,high-low,11.0,rod_fixing,rod_fixing,1.0,128.0900000128895,1554475677363.0,1554475677234.0,5a7a0d8df49c9a0001f31b73,39.0,11.0 11.0,132.0
851,11.0,668246.0,0.3,39.0,high,high-low,11.0,rod_fixing,rod_fixing,1.0,145.17499998328276,1554475677512.0,1554475677366.0,5a7a0d8df49c9a0001f31b73,39.0,11.0 11.0,148.0
852,11.0,668246.0,0.3,39.0,high,high-low,11.0,rod_fixing,rod_fixing,1.0,133.60000000102443,1554475677649.0,1554475677514.0,5a7a0d8df49c9a0001f31b73,39.0,11.0 11.0,138.0
853,11.0,668246.0,0.3,39.0,high,high-low,11.0,rod_fixing,rod_fixing,1.0,139.6099999838043,1554475677792.0,1554475677652.0,5a7a0d8df49c9a0001f31b73,39.0,11.0 11.0,293.0
1271,4.0,668246.0,1.8,39.0,high,high-low,21.0,rod_fixing,rod_fixing,1.0,153.3449999988079,1554475759980.0,1554475759826.0,5a7a0d8df49c9a0001f31b73,39.0,4.0 21.0,159.0
1272,4.0,668246.0,1.8,39.0,high,high-low,21.0,rod_fixing,rod_fixing,1.0,131.33999999263324,1554475760117.0,1554475759985.0,5a7a0d8df49c9a0001f31b73,39.0,4.0 21.0,136.0
1273,4.0,668246.0,1.8,39.0,high,high-low,21.0,rod_fixing,rod_fixing,1.0,139.85999999567866,1554475760262.0,1554475760121.0,5a7a0d8df49c9a0001f31b73,39.0,4.0 21.0,145.0
1274,4.0,668246.0,1.8,39.0,high,high-low,21.0,rod_fixing,rod_fixing,1.0,138.3050000004005,1554475760404.0,1554475760266.0,5a7a0d8df49c9a0001f31b73,39.0,4.0 21.0,142.0
1275,4.0,668246.0,1.8,39.0,high,high-low,21.0,rod_fixing,rod_fixing,1.0,148.01500001340173,1554475760556.0,1554475760408.0,5a7a0d8df49c9a0001f31b73,39.0,4.0 21.0,153.0
1276,4.0,668246.0,1.8,39.0,high,high-low,21.0,rod_fixing,rod_fixing,1.0,146.81999999447726,1554475760708.0,1554475760561.0,5a7a0d8df49c9a0001f31b73,39.0,4.0 21.0,151.0
1277,4.0,668246.0,1.8,39.0,high,high-low,21.0,rod_fixing,rod_fixing,1.0,420.19999999320135,1554475761133.0,1554475760712.0,5a7a0d8df49c9a0001f31b73,39.0,4.0 21.0,441.0
1593,8.0,668246.0,0.3,39.0,high,high-low,21.0,rod_fixing,rod_fixing,1.0,150.1200000056997,1554475812303.0,1554475812153.0,5a7a0d8df49c9a0001f31b73,39.0,8.0 21.0,154.0
1594,8.0,668246.0,0.3,39.0,high,high-low,21.0,rod_fixing,rod_fixing,1.0,123.04999999469145,1554475812431.0,1554475812307.0,5a7a0d8df49c9a0001f31b73,39.0,8.0 21.0,129.0
1595,8.0,668246.0,0.3,39.0,high,high-low,21.0,rod_fixing,rod_fixing,1.0,130.21000000298955,1554475812567.0,1554475812436.0,5a7a0d8df49c9a0001f31b73,39.0,8.0 21.0,135.0
1596,8.0,668246.0,0.3,39.0,high,high-low,21.0,rod_fixing,rod_fixing,1.0,155.880000005709,1554475812727.0,1554475812571.0,5a7a0d8df49c9a0001f31b73,39.0,8.0 21.0,160.0
1597,8.0,668246.0,0.3,39.0,high,high-low,21.0,rod_fixing,rod_fixing,1.0,139.6499999973457,1554475812871.0,1554475812731.0,5a7a0d8df49c9a0001f31b73,39.0,8.0 21.0,454.0
2138,3.0,668246.0,2.5,39.0,low,high-low,12.0,rod_fixing,rod_fixing,1.0,161.56999999657273,1554475937805.0,1554475937642.0,5a7a0d8df49c9a0001f31b73,39.0,3.0 12.0,168.0
2139,3.0,668246.0,2.5,39.0,low,high-low,12.0,rod_fixing,rod_fixing,1.0,153.09000000706874,1554475937963.0,1554475937810.0,5a7a0d8df49c9a0001f31b73,39.0,3.0 12.0,158.0
2140,3.0,668246.0,2.5,39.0,low,high-low,12.0,rod_fixing,rod_fixing,1.0,187.1450000035111,1554475938155.0,1554475937968.0,5a7a0d8df49c9a0001f31b73,39.0,3.0 12.0,192.0
2141,3.0,668246.0,2.5,39.0,low,high-low,12.0,rod_fixing,rod_fixing,1.0,154.99999999883585,1554475938315.0,1554475938160.0,5a7a0d8df49c9a0001f31b73,39.0,3.0 12.0,161.0
2142,3.0,668246.0,2.5,39.0,low,high-low,12.0,rod_fixing,rod_fixing,1.0,169.7449999919627,1554475938491.0,1554475938321.0,5a7a0d8df49c9a0001f31b73,39.0,3.0 12.0,178.0
2143,3.0,668246.0,2.5,39.0,low,high-low,12.0,rod_fixing,rod_fixing,1.0,175.52499999874271,1554475938675.0,1554475938499.0,5a7a0d8df49c9a0001f31b73,39.0,3.0 12.0,374.0
2435,7.0,668246.0,1.2,39.0,low,high-low,12.0,rod_fixing,rod_fixing,1.0,147.94500000425614,1554475990085.0,1554475989937.0,5a7a0d8df49c9a0001f31b73,39.0,7.0 12.0,151.0
2436,7.0,668246.0,1.2,39.0,low,high-low,12.0,rod_fixing,rod_fixing,1.0,134.2000000004191,1554475990223.0,1554475990088.0,5a7a0d8df49c9a0001f31b73,39.0,7.0 12.0,139.0
2437,7.0,668246.0,1.2,39.0,low,high-low,12.0,rod_fixing,rod_fixing,1.0,178.36999997962266,1554475990406.0,1554475990227.0,5a7a0d8df49c9a0001f31b73,39.0,7.0 12.0,190.0
2438,7.0,668246.0,1.2,39.0,low,high-low,12.0,rod_fixing,rod_fixing,1.0,149.17999997851442,1554475990567.0,1554475990417.0,5a7a0d8df49c9a0001f31b73,39.0,7.0 12.0,159.0
2439,7.0,668246.0,1.2,39.0,low,high-low,12.0,rod_fixing,rod_fixing,1.0,173.34999999729916,1554475990750.0,1554475990576.0,5a7a0d8df49c9a0001f31b73,39.0,7.0 12.0,178.0
2440,7.0,668246.0,1.2,39.0,low,high-low,12.0,rod_fixing,rod_fixing,1.0,186.5399999951478,1554475990941.0,1554475990754.0,5a7a0d8df49c9a0001f31b73,39.0,7.0 12.0,387.0
2734,11.0,668246.0,0.3,39.0,low,high-low,12.0,rod_fixing,rod_fixing,1.0,160.81000000122003,1554476042429.0,1554476042267.0,5a7a0d8df49c9a0001f31b73,39.0,11.0 12.0,167.0
2735,11.0,668246.0,0.3,39.0,low,high-low,12.0,rod_fixing,rod_fixing,1.0,186.20499997632575,1554476042621.0,1554476042434.0,5a7a0d8df49c9a0001f31b73,39.0,11.0 12.0,192.0
2736,11.0,668246.0,0.3,39.0,low,high-low,12.0,rod_fixing,rod_fixing,1.0,169.83500000787902,1554476042797.0,1554476042626.0,5a7a0d8df49c9a0001f31b73,39.0,11.0 12.0,179.0
2737,11.0,668246.0,0.3,39.0,low,high-low,12.0,rod_fixing,rod_fixing,1.0,190.86000000243075,1554476042997.0,1554476042805.0,5a7a0d8df49c9a0001f31b73,39.0,11.0 12.0,196.0
2738,11.0,668246.0,0.3,39.0,low,high-low,12.0,rod_fixing,rod_fixing,1.0,171.28500001854263,1554476043173.0,1554476043001.0,5a7a0d8df49c9a0001f31b73,39.0,11.0 12.0,177.0
2739,11.0,668246.0,0.3,39.0,low,high-low,12.0,rod_fixing,rod_fixing,1.0,185.9799999801908,1554476043365.0,1554476043178.0,5a7a0d8df49c9a0001f31b73,39.0,11.0 12.0,395.0
3116,4.0,668246.0,1.8,39.0,low,high-low,22.0,rod_fixing,rod_fixing,1.0,179.19500000425614,1554476137193.0,1554476137014.0,5a7a0d8df49c9a0001f31b73,39.0,4.0 22.0,184.0
3117,4.0,668246.0,1.8,39.0,low,high-low,22.0,rod_fixing,rod_fixing,1.0,162.1600000071339,1554476137361.0,1554476137198.0,5a7a0d8df49c9a0001f31b73,39.0,4.0 22.0,167.0
3118,4.0,668246.0,1.8,39.0,low,high-low,22.0,rod_fixing,rod_fixing,1.0,187.66499997582287,1554476137553.0,1554476137365.0,5a7a0d8df49c9a0001f31b73,39.0,4.0 22.0,195.0
3119,4.0,668246.0,1.8,39.0,low,high-low,22.0,rod_fixing,rod_fixing,1.0,168.25499999686144,1554476137729.0,1554476137560.0,5a7a0d8df49c9a0001f31b73,39.0,4.0 22.0,175.0
3120,4.0,668246.0,1.8,39.0,low,high-low,22.0,rod_fixing,rod_fixing,1.0,169.1149999969639,1554476137905.0,1554476137735.0,5a7a0d8df49c9a0001f31b73,39.0,4.0 22.0,175.0
3121,4.0,668246.0,1.8,39.0,low,high-low,22.0,rod_fixing,rod_fixing,1.0,170.54500000085682,1554476138082.0,1554476137910.0,5a7a0d8df49c9a0001f31b73,39.0,4.0 22.0,176.0
3390,8.0,668246.0,0.3,39.0,low,high-low,22.0,rod_fixing,rod_fixing,1.0,179.05999999493358,1554476189595.0,1554476189415.0,5a7a0d8df49c9a0001f31b73,39.0,8.0 22.0,183.0
3391,8.0,668246.0,0.3,39.0,low,high-low,22.0,rod_fixing,rod_fixing,1.0,188.2000000041444,1554476189787.0,1554476189598.0,5a7a0d8df49c9a0001f31b73,39.0,8.0 22.0,192.0
3392,8.0,668246.0,0.3,39.0,low,high-low,22.0,rod_fixing,rod_fixing,1.0,180.74000001070092,1554476189971.0,1554476189790.0,5a7a0d8df49c9a0001f31b73,39.0,8.0 22.0,185.0
3393,8.0,668246.0,0.3,39.0,low,high-low,22.0,rod_fixing,rod_fixing,1.0,187.43499999982305,1554476190163.0,1554476189975.0,5a7a0d8df49c9a0001f31b73,39.0,8.0 22.0,191.0
3394,8.0,668246.0,0.3,39.0,low,high-low,22.0,rod_fixing,rod_fixing,1.0,196.60000002477318,1554476190363.0,1554476190166.0,5a7a0d8df49c9a0001f31b73,39.0,8.0 22.0,200.0
3395,8.0,668246.0,0.3,39.0,low,high-low,22.0,rod_fixing,rod_fixing,1.0,204.8499999800697,1554476190571.0,1554476190366.0,5a7a0d8df49c9a0001f31b73,39.0,8.0 22.0,210.0
3606,11.0,668246.0,2.5,39.0,low,high-low,22.0,rod_fixing,rod_fixing,1.0,174.97500000172298,1554476228774.0,1554476228599.0,5a7a0d8df49c9a0001f31b73,39.0,11.0 22.0,181.0
3607,11.0,668246.0,2.5,39.0,low,high-low,22.0,rod_fixing,rod_fixing,1.0,162.175000004936,1554476228942.0,1554476228780.0,5a7a0d8df49c9a0001f31b73,39.0,11.0 22.0,168.0
3608,11.0,668246.0,2.5,39.0,low,high-low,22.0,rod_fixing,rod_fixing,1.0,185.18500000936908,1554476229134.0,1554476228948.0,5a7a0d8df49c9a0001f31b73,39.0,11.0 22.0,193.0
3609,11.0,668246.0,2.5,39.0,low,high-low,22.0,rod_fixing,rod_fixing,1.0,233.36000001290813,1554476229375.0,1554476229141.0,5a7a0d8df49c9a0001f31b73,39.0,11.0 22.0,241.0
3610,11.0,668246.0,2.5,39.0,low,high-low,22.0,rod_fixing,rod_fixing,1.0,160.51000001607463,1554476229543.0,1554476229382.0,5a7a0d8df49c9a0001f31b73,39.0,11.0 22.0,169.0
3611,11.0,668246.0,2.5,39.0,low,high-low,22.0,rod_fixing,rod_fixing,1.0,174.25500001991168,1554476229726.0,1554476229551.0,5a7a0d8df49c9a0001f31b73,39.0,11.0 22.0,387.0
188823,3.0,668249.0,0.3,39.0,low,low-high,11.0,rod_fixing,rod_fixing,1.0,148.5499999998865,1554475497738.0,1554475497589.0,5c235c04a74d6400016e4179,39.0,3.0 11.0,151.0
